workerid,rt,effect,cause,language,age,gender,other_gender,quantifier,object_level,response,object,num_objects,slide_number_in_experiment,enjoyment,asses,comments,trial,Item,ProportionResponse,PriorExpectation
0,8539,blew away,left __ on a table on a windy day,english,37,M,F,All,object_mid,15,hats,15,3,2,Yes,NA,1,blew away hats,1,11.052387485109298
0,4407,fell down,punched __,english,37,F,M,Some,object_mid,4,block towers,15,4,2,Yes,NA,2,fell down block towers,0.26666666666666666,12.263438501967169
0,13127,laughed,told a joke to __,english,37,M,M,short_filler,object_low,0,lawyers,15,5,2,Yes,NA,3,laughed lawyers,0,8.501712492528245
0,7532,beeped,left the lights on in __,english,37,M,F,Some,object_high,6,new cars,15,6,2,Yes,NA,4,beeped new cars,0.4,9.052822868614953
0,5795,stuck to the wall,threw __ against a wall,english,37,M,F,All,object_low,15,baseballs,15,7,2,Yes,NA,5,stuck to the wall baseballs,1,2.260884648323793
0,10756,sank,threw __ into a pool,english,37,M,M,short_filler,object_low,0,balloons,15,8,2,Yes,NA,6,sank balloons,0,1.5445100044791333
0,10209,decomposed,put __ in a compost pile for a month,english,37,M,F,short_filler,object_mid,8,pinecones,15,9,2,Yes,NA,7,decomposed pinecones,0.5333333333333333,9.491784817341596
0,3568,landed flat,tossed __,english,37,M,F,All,object_low,15,notebooks,15,10,2,Yes,NA,8,landed flat notebooks,1,12.070264558564942
0,3543,ate the seeds,left seeds out for __,english,37,F,F,short_filler,object_high,13,birds,15,11,2,Yes,NA,9,ate the seeds birds,0.8666666666666667,12.365944808737018
0,3689,burnt,threw __ into a fire,english,37,F,F,short_filler,object_low,0,rocks,15,12,2,Yes,NA,10,burnt rocks,0,4.621885587211013
0,5984,exploded,heated up __ in a microwave,english,37,M,M,long_filler,object_low,7,CDs,15,13,2,Yes,NA,11,exploded CDs,0.4666666666666667,7.84924747413427
0,3496,had the letter Z in them,wrote __,english,37,F,M,Some,object_high,7,novels,15,14,2,Yes,NA,12,had the letter Z in them novels,0.4666666666666667,12.417127900629465
0,3487,got stained,spilled red nail polish on __,english,37,M,F,None,object_mid,0,white shirts,15,15,2,Yes,NA,13,got stained white shirts,0,14.179492921634642
0,5626,stopped,pressed the brakes on __,english,37,M,M,long_filler,object_high,10,cars,15,16,2,Yes,NA,14,stopped cars,0.6666666666666666,13.476028415983608
0,2543,broke,ran __ over with a car,english,37,M,M,None,object_mid,0,boxes,15,17,2,Yes,NA,15,broke boxes,0,13.227516378151478
0,3774,stuck,glued __ to a piece of paper,english,37,F,F,All,object_high,15,stickers,15,18,2,Yes,NA,16,stuck stickers,1,13.73601014908744
0,3359,honked,cut off __,english,37,M,F,Some,object_mid,8,bus drivers,15,19,2,Yes,NA,17,honked bus drivers,0.5333333333333333,10.112891699999901
0,2033,rhymed,wrote __,english,37,F,F,Some,object_high,7,limericks,15,20,2,Yes,NA,18,rhymed limericks,0.4666666666666667,12.14705218576939
0,3344,melted,left __ in the hot sun,english,37,M,M,All,object_mid,15,crayons,15,21,2,Yes,NA,19,melted crayons,1,13.231037108035327
0,3896,ripped,used __ as dog toys,english,37,M,M,None,object_low,0,shoes,15,22,2,Yes,NA,20,ripped shoes,0,10.387117903875804
0,4543,exploded,lit __,english,37,M,M,long_filler,object_low,0,candles,15,23,2,Yes,NA,21,exploded candles,0,1.159048787109265
0,3169,ran out of batteries,left __ on (and unplugged) all day,english,37,M,F,None,object_high,0,laptops,15,24,2,Yes,NA,22,ran out of batteries laptops,0,12.969289999403273
0,3960,reflected the sunlight,placed __ in the sun,english,37,M,F,None,object_high,0,mirrors,15,25,2,Yes,NA,23,reflected the sunlight mirrors,0,13.609731031190691
0,2152,popped,poked __ with a pin,english,37,F,M,Some,object_high,4,bubbles,15,26,2,Yes,NA,24,popped bubbles,0.26666666666666666,14.421873858181714
0,2159,lit up,pressed the 'on' button on __,english,37,F,F,Some,object_mid,4,computers,15,27,2,Yes,NA,25,lit up computers,0.26666666666666666,13.410494165057099
0,1671,were green,saw __,english,37,M,F,Some,object_mid,5,bananas,15,28,2,Yes,NA,26,were green bananas,0.3333333333333333,5.5415456638101155
0,5992,froze,put __ in the freezer,english,37,M,M,long_filler,object_high,15,berries,15,29,2,Yes,NA,27,froze berries,1,14.377259004987641
0,6394,dissolved,put __ in a bucket of water,english,37,M,M,long_filler,object_high,15,sugar cubes,15,30,2,Yes,NA,28,dissolved sugar cubes,1,14.137852924451185
0,14229,flashed,took a picture with __,english,37,M,F,Some,object_mid,5,phones,15,31,2,Yes,NA,29,flashed phones,0.3333333333333333,9.01407984535733
0,3130,rolled,pushed __,english,37,F,M,Some,object_mid,6,shopping carts,15,32,2,Yes,NA,30,rolled shopping carts,0.4,13.115460824610237
1,7265,reflected the sunlight,placed __ in the sun,english,41,M,F,short_filler,object_high,15,mirrors,15,3,1,Yes,NA,1,reflected the sunlight mirrors,1,13.609731031190691
1,9322,ran out of batteries,left __ on (and unplugged) all day,english,41,M,F,All,object_mid,15,bike lights,15,4,1,Yes,NA,2,ran out of batteries bike lights,1,11.54386203761813
1,11096,stuck to the wall,threw __ against a wall,english,41,F,F,Some,object_low,7,baseballs,15,5,1,Yes,NA,3,stuck to the wall baseballs,0.4666666666666667,2.260884648323793
1,8568,landed flat,tossed __,english,41,F,M,short_filler,object_mid,8,pancakes,15,6,1,Yes,NA,4,landed flat pancakes,0.5333333333333333,11.896584800305092
1,4278,rolled,pushed __,english,41,M,F,None,object_high,0,wheelchairs,15,7,1,Yes,NA,5,rolled wheelchairs,0,14.081890892791053
1,4883,dissolved,put __ in a bucket of water,english,41,F,F,long_filler,object_mid,8,oreos,15,8,1,Yes,NA,6,dissolved oreos,0.5333333333333333,10.873526102810693
1,3477,stopped,pressed the brakes on __,english,41,M,M,Some,object_mid,5,motorcycles,15,9,1,Yes,NA,7,stopped motorcycles,0.3333333333333333,13.219713304516466
1,4703,decomposed,put __ in a compost pile for a month,english,41,M,M,Some,object_mid,4,pinecones,15,10,1,Yes,NA,8,decomposed pinecones,0.26666666666666666,9.491784817341596
1,4778,stuck,glued __ to a piece of paper,english,41,M,F,Some,object_high,4,stickers,15,11,1,Yes,NA,9,stuck stickers,0.26666666666666666,13.73601014908744
1,3038,burnt,threw __ into a fire,english,41,M,M,All,object_mid,15,books,15,12,1,Yes,NA,10,burnt books,1,14.051080994101962
1,3163,flashed,took a picture with __,english,41,F,F,Some,object_high,6,cameras,15,13,1,Yes,NA,11,flashed cameras,0.4,9.940973957313002
1,2916,had the letter Z in them,wrote __,english,41,F,M,All,object_high,15,novels,15,14,1,Yes,NA,12,had the letter Z in them novels,1,12.417127900629465
1,5183,laughed,told a joke to __,english,41,F,M,long_filler,object_high,7,kids,15,15,1,Yes,NA,13,laughed kids,0.4666666666666667,9.49379625023112
1,2108,sank,threw __ into a pool,english,41,F,M,Some,object_high,5,marbles,15,16,1,Yes,NA,14,sank marbles,0.3333333333333333,13.753390342917251
1,2195,ate the seeds,left seeds out for __,english,41,M,F,Some,object_low,5,dogs,15,17,1,Yes,NA,15,ate the seeds dogs,0.3333333333333333,6.344011650905836
1,2132,lit up,pressed the 'on' button on __,english,41,M,F,Some,object_high,5,flashlights,15,18,1,Yes,NA,16,lit up flashlights,0.3333333333333333,12.642749860431877
1,6654,popped,poked __ with a pin,english,41,F,M,short_filler,object_high,15,bubbles,15,19,1,Yes,NA,17,popped bubbles,1,14.421873858181714
1,3914,fell down,punched __,english,41,M,F,short_filler,object_high,6,card towers,15,20,1,Yes,NA,18,fell down card towers,0.4,13.763283883931667
1,3810,were green,saw __,english,41,M,F,All,object_high,15,clovers,15,21,1,Yes,NA,19,were green clovers,1,14.178248739336857
1,4009,ripped,used __ as dog toys,english,41,M,F,Some,object_mid,6,shirts,15,22,1,Yes,NA,20,ripped shirts,0.4,10.860010931867507
1,3298,broke,ran __ over with a car,english,41,M,F,None,object_high,0,sunglasses,15,23,1,Yes,NA,21,broke sunglasses,0,14.107479459023798
1,3260,blew away,left __ on a table on a windy day,english,41,F,F,All,object_mid,15,hats,15,24,1,Yes,NA,22,blew away hats,1,11.052387485109298
1,2777,exploded,lit __,english,41,F,F,None,object_high,0,gas tanks,15,25,1,Yes,NA,23,exploded gas tanks,0,12.966228825360377
1,4378,melted,left __ in the hot sun,english,41,F,M,long_filler,object_mid,7,crayons,15,26,1,Yes,NA,24,melted crayons,0.4666666666666667,13.231037108035327
1,3118,rhymed,wrote __,english,41,M,F,None,object_high,0,limericks,15,27,1,Yes,NA,25,rhymed limericks,0,12.14705218576939
1,6178,beeped,left the lights on in __,english,41,M,F,long_filler,object_low,5,houses,15,28,1,Yes,NA,26,beeped houses,0.3333333333333333,3.3887985484645995
1,7365,got stained,spilled red nail polish on __,english,41,M,M,short_filler,object_low,15,white tablecloths,15,29,1,Yes,NA,27,got stained white tablecloths,1,13.882496788490633
1,3265,exploded,heated up __ in a microwave,english,41,M,F,None,object_high,0,eggs,15,30,1,Yes,NA,28,exploded eggs,0,9.615133869640113
1,3970,honked,cut off __,english,41,M,M,long_filler,object_high,5,taxi drivers,15,31,1,Yes,NA,29,honked taxi drivers,0.3333333333333333,11.196844691877397
1,2841,froze,put __ in the freezer,english,41,M,F,Some,object_mid,5,chocolate bars,15,32,1,Yes,NA,30,froze chocolate bars,0.3333333333333333,13.981233371629443
2,7958,stopped,pressed the brakes on __,English,30,M,F,short_filler,object_high,15,cars,15,3,2,Yes,NA,1,stopped cars,1,13.476028415983608
2,7007,froze,put __ in the freezer,English,30,F,M,long_filler,object_low,15,bottles of hand soap,15,4,2,Yes,NA,2,froze bottles of hand soap,1,10.935477411822802
2,3734,got stained,spilled red nail polish on __,English,30,M,F,All,object_high,15,white carpets,15,5,2,Yes,NA,3,got stained white carpets,1,14.128146496766012
2,3220,beeped,left the lights on in __,English,30,F,F,None,object_high,0,new cars,15,6,2,Yes,NA,4,beeped new cars,0,9.052822868614953
2,3578,burnt,threw __ into a fire,English,30,F,M,short_filler,object_high,15,matches,15,7,2,Yes,NA,5,burnt matches,1,14.323536207549443
2,5964,sank,threw __ into a pool,English,30,F,F,long_filler,object_low,0,balloons,15,8,2,Yes,NA,6,sank balloons,0,1.5445100044791333
2,3492,rolled,pushed __,English,30,F,M,None,object_high,0,wheelchairs,15,9,2,Yes,NA,7,rolled wheelchairs,0,14.081890892791053
2,6984,stuck to the wall,threw __ against a wall,English,30,M,F,Some,object_mid,8,cakes,15,10,2,Yes,NA,8,stuck to the wall cakes,0.5333333333333333,5.0530497893902515
2,2082,fell down,punched __,English,30,M,M,Some,object_mid,7,block towers,15,11,2,Yes,NA,9,fell down block towers,0.4666666666666667,12.263438501967169
2,6040,lit up,pressed the 'on' button on __,English,30,F,M,short_filler,object_mid,15,computers,15,12,2,Yes,NA,10,lit up computers,1,13.410494165057099
2,3494,flashed,took a picture with __,English,30,F,M,None,object_high,0,cameras,15,13,2,Yes,NA,11,flashed cameras,0,9.940973957313002
2,7451,exploded,heated up __ in a microwave,English,30,M,M,long_filler,object_mid,15,balls of tin foil,15,14,2,Yes,NA,12,exploded balls of tin foil,1,11.403316050279962
2,4076,melted,left __ in the hot sun,English,30,M,F,All,object_low,15,pencils,15,15,2,Yes,NA,13,melted pencils,1,2.4374810535720317
2,3540,blew away,left __ on a table on a windy day,English,30,F,F,Some,object_mid,7,hats,15,16,2,Yes,NA,14,blew away hats,0.4666666666666667,11.052387485109298
2,5496,laughed,told a joke to __,English,30,M,M,long_filler,object_low,15,lawyers,15,17,2,Yes,NA,15,laughed lawyers,1,8.501712492528245
2,5208,ran out of batteries,left __ on (and unplugged) all day,English,30,M,F,Some,object_low,10,phones,15,18,2,Yes,NA,16,ran out of batteries phones,0.6666666666666666,9.489259741561506
2,3436,honked,cut off __,English,30,F,M,Some,object_low,8,bicyclists,15,19,2,Yes,NA,17,honked bicyclists,0.5333333333333333,5.317873569706685
2,3126,exploded,lit __,English,30,M,F,short_filler,object_mid,15,fireworks,15,20,2,Yes,NA,18,exploded fireworks,1,12.834754345666402
2,2862,rhymed,wrote __,English,30,F,F,Some,object_low,7,poems,15,21,2,Yes,NA,19,rhymed poems,0.4666666666666667,9.78994930986818
2,2314,broke,ran __ over with a car,English,30,F,F,All,object_high,15,sunglasses,15,22,2,Yes,NA,20,broke sunglasses,1,14.107479459023798
2,4576,decomposed,put __ in a compost pile for a month,English,30,M,F,None,object_high,0,banana peels,15,23,2,Yes,NA,21,decomposed banana peels,0,13.147252019709121
2,2456,landed flat,tossed __,English,30,M,M,Some,object_high,8,coins,15,24,2,Yes,NA,22,landed flat coins,0.5333333333333333,12.937387615808788
2,2378,reflected the sunlight,placed __ in the sun,English,30,F,M,All,object_high,15,mirrors,15,25,2,Yes,NA,23,reflected the sunlight mirrors,1,13.609731031190691
2,2534,stuck,glued __ to a piece of paper,English,30,M,M,None,object_mid,0,sequins,15,26,2,Yes,NA,24,stuck sequins,0,12.652303924869136
2,3898,had the letter Z in them,wrote __,English,30,F,M,All,object_high,15,novels,15,27,2,Yes,NA,25,had the letter Z in them novels,1,12.417127900629465
2,5362,ripped,used __ as dog toys,English,30,F,F,short_filler,object_mid,15,shirts,15,28,2,Yes,NA,26,ripped shirts,1,10.860010931867507
2,2262,popped,poked __ with a pin,English,30,F,F,Some,object_high,8,bubbles,15,29,2,Yes,NA,27,popped bubbles,0.5333333333333333,14.421873858181714
2,6970,ate the seeds,left seeds out for __,English,30,M,M,long_filler,object_low,15,dogs,15,30,2,Yes,NA,28,ate the seeds dogs,1,6.344011650905836
2,1932,dissolved,put __ in a bucket of water,English,30,M,F,Some,object_low,7,carrots,15,31,2,Yes,NA,29,dissolved carrots,0.4666666666666667,1.2853167551527385
2,1864,were green,saw __,English,30,M,F,Some,object_mid,8,bananas,15,32,2,Yes,NA,30,were green bananas,0.5333333333333333,5.5415456638101155
3,9231,lit up,pressed the 'on' button on __,English,26,M,F,Some,object_high,11,flashlights,15,3,1,Yes,NA,1,lit up flashlights,0.7333333333333333,12.642749860431877
3,9039,beeped,left the lights on in __,English,26,F,M,short_filler,object_low,15,houses,15,4,1,Yes,NA,2,beeped houses,1,3.3887985484645995
3,8496,sank,threw __ into a pool,English,26,F,F,short_filler,object_mid,0,cups,15,5,1,Yes,NA,3,sank cups,0,6.20158939454454
3,5231,landed flat,tossed __,English,26,F,F,None,object_mid,0,pancakes,15,6,1,Yes,NA,4,landed flat pancakes,0,11.896584800305092
3,4208,decomposed,put __ in a compost pile for a month,English,26,M,F,All,object_low,15,soda cans,15,7,1,Yes,NA,5,decomposed soda cans,1,2.187018475900629
3,4393,stuck to the wall,threw __ against a wall,English,26,M,F,Some,object_mid,8,cakes,15,8,1,Yes,NA,6,stuck to the wall cakes,0.5333333333333333,5.0530497893902515
3,10096,fell down,punched __,English,26,M,F,short_filler,object_mid,15,block towers,15,9,1,Yes,NA,7,fell down block towers,1,12.263438501967169
3,4817,flashed,took a picture with __,English,26,M,M,None,object_high,0,cameras,15,10,1,Yes,NA,8,flashed cameras,0,9.940973957313002
3,3176,rolled,pushed __,English,26,M,F,None,object_low,0,toy cars,15,11,1,Yes,NA,9,rolled toy cars,0,13.15225908088078
3,3167,exploded,heated up __ in a microwave,English,26,F,F,Some,object_low,8,CDs,15,12,1,Yes,NA,10,exploded CDs,0.5333333333333333,7.84924747413427
3,3217,dissolved,put __ in a bucket of water,English,26,F,M,All,object_mid,15,oreos,15,13,1,Yes,NA,11,dissolved oreos,1,10.873526102810693
3,4479,ate the seeds,left seeds out for __,English,26,F,M,Some,object_low,7,dogs,15,14,1,Yes,NA,12,ate the seeds dogs,0.4666666666666667,6.344011650905836
3,8272,ran out of batteries,left __ on (and unplugged) all day,English,26,F,M,long_filler,object_mid,0,bike lights,15,15,1,Yes,NA,13,ran out of batteries bike lights,0,11.54386203761813
3,5207,rhymed,wrote __,English,26,F,M,long_filler,object_high,7,limericks,15,16,1,Yes,NA,14,rhymed limericks,0.4666666666666667,12.14705218576939
3,2720,stuck,glued __ to a piece of paper,English,26,M,M,All,object_high,15,stickers,15,17,1,Yes,NA,15,stuck stickers,1,13.73601014908744
3,2984,honked,cut off __,English,26,F,F,Some,object_mid,7,bus drivers,15,18,1,Yes,NA,16,honked bus drivers,0.4666666666666667,10.112891699999901
3,3208,froze,put __ in the freezer,English,26,M,M,Some,object_high,9,berries,15,19,1,Yes,NA,17,froze berries,0.6,14.377259004987641
3,4208,reflected the sunlight,placed __ in the sun,English,26,F,M,Some,object_low,10,phone screens,15,20,1,Yes,NA,18,reflected the sunlight phone screens,0.6666666666666666,13.200526028593703
3,4104,popped,poked __ with a pin,English,26,M,M,All,object_high,15,bubbles,15,21,1,Yes,NA,19,popped bubbles,1,14.421873858181714
3,5008,laughed,told a joke to __,English,26,M,F,Some,object_high,9,kids,15,22,1,Yes,NA,20,laughed kids,0.6,9.49379625023112
3,6248,ripped,used __ as dog toys,English,26,F,F,long_filler,object_low,5,shoes,15,23,1,Yes,NA,21,ripped shoes,0.3333333333333333,10.387117903875804
3,3160,melted,left __ in the hot sun,English,26,M,F,None,object_high,0,ice cubes,15,24,1,Yes,NA,22,melted ice cubes,0,14.08769806047017
3,3895,got stained,spilled red nail polish on __,English,26,F,M,Some,object_high,10,white carpets,15,25,1,Yes,NA,23,got stained white carpets,0.6666666666666666,14.128146496766012
3,10744,blew away,left __ on a table on a windy day,English,26,F,M,short_filler,object_low,2,backpacks,15,26,1,Yes,NA,24,blew away backpacks,0.13333333333333333,3.1859673290741206
3,3424,stopped,pressed the brakes on __,English,26,F,M,All,object_high,15,cars,15,27,1,Yes,NA,25,stopped cars,1,13.476028415983608
3,4624,exploded,lit __,English,26,M,M,short_filler,object_low,0,candles,15,28,1,Yes,NA,26,exploded candles,0,1.159048787109265
3,2759,broke,ran __ over with a car,English,26,F,M,None,object_low,0,logs,15,29,1,Yes,NA,27,broke logs,0,6.09848929758821
3,4713,burnt,threw __ into a fire,English,26,F,F,long_filler,object_high,15,matches,15,30,1,Yes,NA,28,burnt matches,1,14.323536207549443
3,9575,were green,saw __,English,26,M,F,long_filler,object_high,13,clovers,15,31,1,Yes,NA,29,were green clovers,0.8666666666666667,14.178248739336857
3,4609,had the letter Z in them,wrote __,English,26,F,F,Some,object_mid,8,love notes,15,32,1,Yes,NA,30,had the letter Z in them love notes,0.5333333333333333,5.775082649817127
4,9198,rolled,pushed __,English,21,M,M,None,object_mid,0,shopping carts,15,3,2,Yes,Thank you very much!,1,rolled shopping carts,0,13.115460824610237
4,3326,stuck,glued __ to a piece of paper,English,21,F,M,Some,object_mid,4,sequins,15,4,2,Yes,Thank you very much!,2,stuck sequins,0.26666666666666666,12.652303924869136
4,15318,broke,ran __ over with a car,English,21,F,M,long_filler,object_mid,7,boxes,15,5,2,Yes,Thank you very much!,3,broke boxes,0.4666666666666667,13.227516378151478
4,8707,beeped,left the lights on in __,English,21,M,M,None,object_low,0,houses,15,6,2,Yes,Thank you very much!,4,beeped houses,0,3.3887985484645995
4,10269,blew away,left __ on a table on a windy day,English,21,M,M,short_filler,object_high,15,napkins,15,7,2,Yes,Thank you very much!,5,blew away napkins,1,13.88454430875539
4,9955,got stained,spilled red nail polish on __,English,21,F,F,None,object_high,0,white carpets,15,8,2,Yes,Thank you very much!,6,got stained white carpets,0,14.128146496766012
4,8326,exploded,lit __,English,21,F,F,long_filler,object_low,8,candles,15,9,2,Yes,Thank you very much!,7,exploded candles,0.5333333333333333,1.159048787109265
4,6448,froze,put __ in the freezer,English,21,M,M,short_filler,object_low,14,bottles of hand soap,15,10,2,Yes,Thank you very much!,8,froze bottles of hand soap,0.9333333333333333,10.935477411822802
4,18084,fell down,punched __,English,21,F,M,short_filler,object_mid,0,block towers,15,11,2,Yes,Thank you very much!,9,fell down block towers,0,12.263438501967169
4,6373,had the letter Z in them,wrote __,English,21,F,F,Some,object_low,7,birthday cards,15,12,2,Yes,Thank you very much!,10,had the letter Z in them birthday cards,0.4666666666666667,2.838703299024723
4,5356,ripped,used __ as dog toys,English,21,M,F,short_filler,object_low,15,shoes,15,13,2,Yes,Thank you very much!,11,ripped shoes,1,10.387117903875804
4,4086,burnt,threw __ into a fire,English,21,F,M,long_filler,object_low,8,rocks,15,14,2,Yes,Thank you very much!,12,burnt rocks,0.5333333333333333,4.621885587211013
4,4841,dissolved,put __ in a bucket of water,English,21,M,M,Some,object_low,7,carrots,15,15,2,Yes,Thank you very much!,13,dissolved carrots,0.4666666666666667,1.2853167551527385
4,5770,were green,saw __,English,21,M,F,short_filler,object_mid,8,bananas,15,16,2,Yes,Thank you very much!,14,were green bananas,0.5333333333333333,5.5415456638101155
4,5553,honked,cut off __,English,21,M,F,Some,object_high,9,taxi drivers,15,17,2,Yes,Thank you very much!,15,honked taxi drivers,0.6,11.196844691877397
4,7500,lit up,pressed the 'on' button on __,English,21,F,F,Some,object_high,11,flashlights,15,18,2,Yes,Thank you very much!,16,lit up flashlights,0.7333333333333333,12.642749860431877
4,10816,ran out of batteries,left __ on (and unplugged) all day,English,21,M,F,long_filler,object_mid,12,bike lights,15,19,2,Yes,Thank you very much!,17,ran out of batteries bike lights,0.8,11.54386203761813
4,15146,stopped,pressed the brakes on __,English,21,M,M,All,object_mid,15,motorcycles,15,20,2,Yes,Thank you very much!,18,stopped motorcycles,1,13.219713304516466
4,4766,rhymed,wrote __,English,21,F,M,None,object_mid,15,songs,15,21,2,Yes,Thank you very much!,19,rhymed songs,1,9.154605076588458
4,6186,exploded,heated up __ in a microwave,English,21,F,F,All,object_high,15,eggs,15,22,2,Yes,Thank you very much!,20,exploded eggs,1,9.615133869640113
4,7427,decomposed,put __ in a compost pile for a month,English,21,M,F,long_filler,object_mid,9,pinecones,15,23,2,Yes,Thank you very much!,21,decomposed pinecones,0.6,9.491784817341596
4,7439,ate the seeds,left seeds out for __,English,21,F,F,Some,object_low,7,dogs,15,24,2,Yes,Thank you very much!,22,ate the seeds dogs,0.4666666666666667,6.344011650905836
4,4104,sank,threw __ into a pool,English,21,M,F,All,object_low,15,balloons,15,25,2,Yes,Thank you very much!,23,sank balloons,1,1.5445100044791333
4,4192,stuck to the wall,threw __ against a wall,English,21,M,M,Some,object_mid,8,cakes,15,26,2,Yes,Thank you very much!,24,stuck to the wall cakes,0.5333333333333333,5.0530497893902515
4,3630,melted,left __ in the hot sun,English,21,M,M,None,object_low,0,pencils,15,27,2,Yes,Thank you very much!,25,melted pencils,0,2.4374810535720317
4,2932,landed flat,tossed __,English,21,M,M,Some,object_high,7,coins,15,28,2,Yes,Thank you very much!,26,landed flat coins,0.4666666666666667,12.937387615808788
4,4585,laughed,told a joke to __,English,21,F,M,All,object_low,15,lawyers,15,29,2,Yes,Thank you very much!,27,laughed lawyers,1,8.501712492528245
4,3133,flashed,took a picture with __,English,21,F,F,Some,object_mid,8,phones,15,30,2,Yes,Thank you very much!,28,flashed phones,0.5333333333333333,9.01407984535733
4,4951,reflected the sunlight,placed __ in the sun,English,21,F,F,All,object_mid,15,diamonds,15,31,2,Yes,Thank you very much!,29,reflected the sunlight diamonds,1,14.033830597116333
4,2694,popped,poked __ with a pin,English,21,M,M,Some,object_high,8,bubbles,15,32,2,Yes,Thank you very much!,30,popped bubbles,0.5333333333333333,14.421873858181714
5,18222,ate the seeds,left seeds out for __,English,26,F,F,short_filler,object_mid,10,butterflies,15,3,1,Yes,NA,1,ate the seeds butterflies,0.6666666666666666,8.606938580395987
5,6599,stuck,glued __ to a piece of paper,English,26,M,M,long_filler,object_mid,15,sequins,15,4,1,Yes,NA,2,stuck sequins,1,12.652303924869136
5,6633,landed flat,tossed __,English,26,F,M,long_filler,object_high,13,coins,15,5,1,Yes,NA,3,landed flat coins,0.8666666666666667,12.937387615808788
5,12671,sank,threw __ into a pool,English,26,M,M,long_filler,object_low,10,balloons,15,6,1,Yes,NA,4,sank balloons,0.6666666666666666,1.5445100044791333
5,6902,exploded,heated up __ in a microwave,English,26,M,M,Some,object_low,8,CDs,15,7,1,Yes,NA,5,exploded CDs,0.5333333333333333,7.84924747413427
5,6016,reflected the sunlight,placed __ in the sun,English,26,F,M,All,object_high,15,mirrors,15,8,1,Yes,NA,6,reflected the sunlight mirrors,1,13.609731031190691
5,6746,fell down,punched __,English,26,M,M,Some,object_mid,7,block towers,15,9,1,Yes,NA,7,fell down block towers,0.4666666666666667,12.263438501967169
5,8248,beeped,left the lights on in __,English,26,F,F,None,object_high,0,new cars,15,10,1,Yes,NA,8,beeped new cars,0,9.052822868614953
5,5134,lit up,pressed the 'on' button on __,English,26,F,M,Some,object_mid,7,computers,15,11,1,Yes,NA,9,lit up computers,0.4666666666666667,13.410494165057099
5,5066,rhymed,wrote __,English,26,M,F,short_filler,object_high,5,limericks,15,12,1,Yes,NA,10,rhymed limericks,0.3333333333333333,12.14705218576939
5,6071,rolled,pushed __,English,26,F,F,short_filler,object_high,15,wheelchairs,15,13,1,Yes,NA,11,rolled wheelchairs,1,14.081890892791053
5,4552,were green,saw __,English,26,M,M,Some,object_mid,5,bananas,15,14,1,Yes,NA,12,were green bananas,0.3333333333333333,5.5415456638101155
5,6384,broke,ran __ over with a car,English,26,F,M,Some,object_high,4,sunglasses,15,15,1,Yes,NA,13,broke sunglasses,0.26666666666666666,14.107479459023798
5,7120,honked,cut off __,English,26,F,F,None,object_mid,0,bus drivers,15,16,1,Yes,NA,14,honked bus drivers,0,10.112891699999901
5,7016,dissolved,put __ in a bucket of water,English,26,M,M,Some,object_high,6,sugar cubes,15,17,1,Yes,NA,15,dissolved sugar cubes,0.4,14.137852924451185
5,9279,decomposed,put __ in a compost pile for a month,English,26,F,M,short_filler,object_mid,15,pinecones,15,18,1,Yes,NA,16,decomposed pinecones,1,9.491784817341596
5,9416,laughed,told a joke to __,English,26,M,M,long_filler,object_low,11,lawyers,15,19,1,Yes,NA,17,laughed lawyers,0.7333333333333333,8.501712492528245
5,8591,had the letter Z in them,wrote __,English,26,M,F,All,object_high,15,novels,15,20,1,Yes,NA,18,had the letter Z in them novels,1,12.417127900629465
5,6184,melted,left __ in the hot sun,English,26,F,F,short_filler,object_mid,15,crayons,15,21,1,Yes,NA,19,melted crayons,1,13.231037108035327
5,6663,ran out of batteries,left __ on (and unplugged) all day,English,26,M,F,Some,object_low,8,phones,15,22,1,Yes,NA,20,ran out of batteries phones,0.5333333333333333,9.489259741561506
5,4625,flashed,took a picture with __,English,26,F,M,None,object_low,0,webcams,15,23,1,Yes,NA,21,flashed webcams,0,6.31436691074992
5,8567,got stained,spilled red nail polish on __,English,26,F,M,All,object_high,15,white carpets,15,24,1,Yes,NA,22,got stained white carpets,1,14.128146496766012
5,8824,froze,put __ in the freezer,English,26,M,F,Some,object_low,7,bottles of hand soap,15,25,1,Yes,NA,23,froze bottles of hand soap,0.4666666666666667,10.935477411822802
5,4464,burnt,threw __ into a fire,English,26,M,M,None,object_high,0,matches,15,26,1,Yes,NA,24,burnt matches,0,14.323536207549443
5,5120,exploded,lit __,English,26,F,M,Some,object_low,6,candles,15,27,1,Yes,NA,25,exploded candles,0.4,1.159048787109265
5,5143,blew away,left __ on a table on a windy day,English,26,F,F,All,object_high,15,napkins,15,28,1,Yes,NA,26,blew away napkins,1,13.88454430875539
5,8704,ripped,used __ as dog toys,English,26,M,M,long_filler,object_low,15,shoes,15,29,1,Yes,NA,27,ripped shoes,1,10.387117903875804
5,4942,popped,poked __ with a pin,English,26,F,F,None,object_mid,0,balloons,15,30,1,Yes,NA,28,popped balloons,0,14.185919225153699
5,5104,stuck to the wall,threw __ against a wall,English,26,F,M,All,object_low,15,baseballs,15,31,1,Yes,NA,29,stuck to the wall baseballs,1,2.260884648323793
5,5626,stopped,pressed the brakes on __,English,26,M,F,Some,object_high,7,cars,15,32,1,Yes,NA,30,stopped cars,0.4666666666666667,13.476028415983608
6,5253,ran out of batteries,left __ on (and unplugged) all day,English,31,M,M,All,object_low,15,phones,15,3,1,Yes,no,1,ran out of batteries phones,1,9.489259741561506
6,4260,flashed,took a picture with __,English,31,F,M,Some,object_mid,8,phones,15,4,1,Yes,no,2,flashed phones,0.5333333333333333,9.01407984535733
6,4100,reflected the sunlight,placed __ in the sun,English,31,F,F,All,object_high,15,mirrors,15,5,1,Yes,no,3,reflected the sunlight mirrors,1,13.609731031190691
6,4380,stuck,glued __ to a piece of paper,English,31,M,M,All,object_low,15,beads,15,6,1,Yes,no,4,stuck beads,1,12.048584480716158
6,4009,froze,put __ in the freezer,English,31,M,F,Some,object_low,8,bottles of hand soap,15,7,1,Yes,no,5,froze bottles of hand soap,0.5333333333333333,10.935477411822802
6,6953,popped,poked __ with a pin,English,31,F,M,short_filler,object_low,0,eggs,15,8,1,Yes,no,6,popped eggs,0,8.683263088658803
6,5344,landed flat,tossed __,English,31,F,M,Some,object_mid,8,pancakes,15,9,1,Yes,no,7,landed flat pancakes,0.5333333333333333,11.896584800305092
6,8529,laughed,told a joke to __,English,31,F,M,short_filler,object_mid,13,comedians,15,10,1,Yes,no,8,laughed comedians,0.8666666666666667,8.440146775068634
6,5470,rolled,pushed __,English,31,F,F,short_filler,object_low,14,toy cars,15,11,1,Yes,no,9,rolled toy cars,0.9333333333333333,13.15225908088078
6,4080,exploded,heated up __ in a microwave,English,31,F,F,None,object_high,0,eggs,15,12,1,Yes,no,10,exploded eggs,0,9.615133869640113
6,5186,stopped,pressed the brakes on __,English,31,F,M,Some,object_high,10,cars,15,13,1,Yes,no,11,stopped cars,0.6666666666666666,13.476028415983608
6,5843,stuck to the wall,threw __ against a wall,English,31,M,M,long_filler,object_mid,7,cakes,15,14,1,Yes,no,12,stuck to the wall cakes,0.4666666666666667,5.0530497893902515
6,3187,fell down,punched __,English,31,F,M,All,object_mid,15,block towers,15,15,1,Yes,no,13,fell down block towers,1,12.263438501967169
6,3493,broke,ran __ over with a car,English,31,F,F,All,object_high,15,sunglasses,15,16,1,Yes,no,14,broke sunglasses,1,14.107479459023798
6,3363,sank,threw __ into a pool,English,31,F,F,Some,object_low,7,balloons,15,17,1,Yes,no,15,sank balloons,0.4666666666666667,1.5445100044791333
6,5420,beeped,left the lights on in __,English,31,F,F,None,object_low,0,houses,15,18,1,Yes,no,16,beeped houses,0,3.3887985484645995
6,4957,rhymed,wrote __,English,31,M,M,Some,object_low,6,poems,15,19,1,Yes,no,17,rhymed poems,0.4,9.78994930986818
6,10149,got stained,spilled red nail polish on __,English,31,M,F,long_filler,object_low,12,white tablecloths,15,20,1,Yes,no,18,got stained white tablecloths,0.8,13.882496788490633
6,4987,decomposed,put __ in a compost pile for a month,English,31,F,F,Some,object_low,6,soda cans,15,21,1,Yes,no,19,decomposed soda cans,0.4,2.187018475900629
6,3879,lit up,pressed the 'on' button on __,English,31,F,M,Some,object_low,11,cd-players,15,22,1,Yes,no,20,lit up cd-players,0.7333333333333333,12.391837229251065
6,3027,ate the seeds,left seeds out for __,English,31,F,M,None,object_high,0,birds,15,23,1,Yes,no,21,ate the seeds birds,0,12.365944808737018
6,4330,melted,left __ in the hot sun,English,31,F,M,short_filler,object_high,15,ice cubes,15,24,1,Yes,no,22,melted ice cubes,1,14.08769806047017
6,4596,blew away,left __ on a table on a windy day,English,31,M,F,Some,object_low,8,backpacks,15,25,1,Yes,no,23,blew away backpacks,0.5333333333333333,3.1859673290741206
6,3240,dissolved,put __ in a bucket of water,English,31,M,M,None,object_mid,0,oreos,15,26,1,Yes,no,24,dissolved oreos,0,10.873526102810693
6,9390,exploded,lit __,English,31,F,M,long_filler,object_low,1,candles,15,27,1,Yes,no,25,exploded candles,0.06666666666666667,1.159048787109265
6,5736,were green,saw __,English,31,F,F,long_filler,object_mid,9,bananas,15,28,1,Yes,no,26,were green bananas,0.6,5.5415456638101155
6,3163,honked,cut off __,English,31,F,M,None,object_high,0,taxi drivers,15,29,1,Yes,no,27,honked taxi drivers,0,11.196844691877397
6,7041,had the letter Z in them,wrote __,English,31,M,M,long_filler,object_high,15,novels,15,30,1,Yes,no,28,had the letter Z in them novels,1,12.417127900629465
6,10056,ripped,used __ as dog toys,English,31,F,M,short_filler,object_high,13,books,15,31,1,Yes,no,29,ripped books,0.8666666666666667,12.65668880089622
6,8609,burnt,threw __ into a fire,English,31,F,M,Some,object_high,12,matches,15,32,1,Yes,no,30,burnt matches,0.8,14.323536207549443
7,11492,popped,poked __ with a pin,English,35,M,M,short_filler,object_high,15,bubbles,15,3,2,Yes,Thanks!,1,popped bubbles,1,14.421873858181714
7,13421,dissolved,put __ in a bucket of water,English,35,F,M,long_filler,object_mid,15,oreos,15,4,2,Yes,Thanks!,2,dissolved oreos,1,10.873526102810693
7,7864,got stained,spilled red nail polish on __,English,35,F,M,None,object_mid,0,white shirts,15,5,2,Yes,Thanks!,3,got stained white shirts,0,14.179492921634642
7,7269,stuck to the wall,threw __ against a wall,English,35,F,M,short_filler,object_low,0,baseballs,15,6,2,Yes,Thanks!,4,stuck to the wall baseballs,0,2.260884648323793
7,8509,beeped,left the lights on in __,English,35,F,F,None,object_mid,0,old cars,15,7,2,Yes,Thanks!,5,beeped old cars,0,3.376453592389398
7,6490,were green,saw __,English,35,F,M,short_filler,object_mid,0,bananas,15,8,2,Yes,Thanks!,6,were green bananas,0,5.5415456638101155
7,7879,ran out of batteries,left __ on (and unplugged) all day,English,35,F,F,Some,object_high,15,laptops,15,9,2,Yes,Thanks!,7,ran out of batteries laptops,1,12.969289999403273
7,4246,melted,left __ in the hot sun,English,35,F,M,All,object_low,15,pencils,15,10,2,Yes,Thanks!,8,melted pencils,1,2.4374810535720317
7,4581,landed flat,tossed __,English,35,F,F,Some,object_mid,8,pancakes,15,11,2,Yes,Thanks!,9,landed flat pancakes,0.5333333333333333,11.896584800305092
7,7615,froze,put __ in the freezer,English,35,M,F,long_filler,object_low,15,bottles of hand soap,15,12,2,Yes,Thanks!,10,froze bottles of hand soap,1,10.935477411822802
7,19510,laughed,told a joke to __,English,35,M,F,long_filler,object_high,8,kids,15,13,2,Yes,Thanks!,11,laughed kids,0.5333333333333333,9.49379625023112
7,3998,exploded,heated up __ in a microwave,English,35,M,F,All,object_mid,15,balls of tin foil,15,14,2,Yes,Thanks!,12,exploded balls of tin foil,1,11.403316050279962
7,4758,blew away,left __ on a table on a windy day,English,35,F,F,All,object_mid,15,hats,15,15,2,Yes,Thanks!,13,blew away hats,1,11.052387485109298
7,4718,exploded,lit __,English,35,F,F,Some,object_high,9,gas tanks,15,16,2,Yes,Thanks!,14,exploded gas tanks,0.6,12.966228825360377
7,7864,stopped,pressed the brakes on __,English,35,M,M,long_filler,object_mid,15,motorcycles,15,17,2,Yes,Thanks!,15,stopped motorcycles,1,13.219713304516466
7,10798,rhymed,wrote __,English,35,M,M,long_filler,object_low,6,poems,15,18,2,Yes,Thanks!,16,rhymed poems,0.4,9.78994930986818
7,5401,had the letter Z in them,wrote __,English,35,M,F,Some,object_mid,7,love notes,15,19,2,Yes,Thanks!,17,had the letter Z in them love notes,0.4666666666666667,5.775082649817127
7,6474,lit up,pressed the 'on' button on __,English,35,F,F,Some,object_low,10,cd-players,15,20,2,Yes,Thanks!,18,lit up cd-players,0.6666666666666666,12.391837229251065
7,13427,flashed,took a picture with __,English,35,M,F,Some,object_high,8,cameras,15,21,2,Yes,Thanks!,19,flashed cameras,0.5333333333333333,9.940973957313002
7,6166,stuck,glued __ to a piece of paper,English,35,F,M,Some,object_low,15,beads,15,22,2,Yes,Thanks!,20,stuck beads,1,12.048584480716158
7,2744,sank,threw __ into a pool,English,35,F,F,All,object_low,15,balloons,15,23,2,Yes,Thanks!,21,sank balloons,1,1.5445100044791333
7,4154,ripped,used __ as dog toys,English,35,F,F,None,object_mid,0,shirts,15,24,2,Yes,Thanks!,22,ripped shirts,0,10.860010931867507
7,12498,fell down,punched __,English,35,F,M,Some,object_mid,10,block towers,15,25,2,Yes,Thanks!,23,fell down block towers,0.6666666666666666,12.263438501967169
7,4281,rolled,pushed __,English,35,F,M,All,object_low,15,toy cars,15,26,2,Yes,Thanks!,24,rolled toy cars,1,13.15225908088078
7,5067,decomposed,put __ in a compost pile for a month,English,35,M,F,short_filler,object_high,15,banana peels,15,27,2,Yes,Thanks!,25,decomposed banana peels,1,13.147252019709121
7,3495,burnt,threw __ into a fire,English,35,M,F,None,object_mid,0,books,15,28,2,Yes,Thanks!,26,burnt books,0,14.051080994101962
7,5824,ate the seeds,left seeds out for __,English,35,M,M,None,object_high,0,birds,15,29,2,Yes,Thanks!,27,ate the seeds birds,0,12.365944808737018
7,7904,reflected the sunlight,placed __ in the sun,English,35,M,M,Some,object_high,9,mirrors,15,30,2,Yes,Thanks!,28,reflected the sunlight mirrors,0.6,13.609731031190691
7,4809,honked,cut off __,English,35,F,F,short_filler,object_low,8,bicyclists,15,31,2,Yes,Thanks!,29,honked bicyclists,0.5333333333333333,5.317873569706685
7,4596,broke,ran __ over with a car,English,35,M,F,Some,object_low,9,logs,15,32,2,Yes,Thanks!,30,broke logs,0.6,6.09848929758821
8,11634,popped,poked __ with a pin,English,43,M,F,All,object_high,15,bubbles,15,3,2,Yes,NA,1,popped bubbles,1,14.421873858181714
8,9386,ripped,used __ as dog toys,English,43,M,F,None,object_high,0,books,15,4,2,Yes,NA,2,ripped books,0,12.65668880089622
8,5714,stuck to the wall,threw __ against a wall,English,43,F,M,Some,object_mid,7,cakes,15,5,2,Yes,NA,3,stuck to the wall cakes,0.4666666666666667,5.0530497893902515
8,15399,stuck,glued __ to a piece of paper,English,43,M,F,long_filler,object_high,4,stickers,15,6,2,Yes,NA,4,stuck stickers,0.26666666666666666,13.73601014908744
8,7533,flashed,took a picture with __,English,43,F,F,Some,object_low,6,webcams,15,7,2,Yes,NA,5,flashed webcams,0.4,6.31436691074992
8,7736,froze,put __ in the freezer,English,43,M,M,Some,object_high,7,berries,15,8,2,Yes,NA,6,froze berries,0.4666666666666667,14.377259004987641
8,8716,broke,ran __ over with a car,English,43,F,F,short_filler,object_low,0,logs,15,9,2,Yes,NA,7,broke logs,0,6.09848929758821
8,5849,ate the seeds,left seeds out for __,English,43,F,M,None,object_high,0,birds,15,10,2,Yes,NA,8,ate the seeds birds,0,12.365944808737018
8,9047,landed flat,tossed __,English,43,F,F,None,object_low,0,notebooks,15,11,2,Yes,NA,9,landed flat notebooks,0,12.070264558564942
8,20718,stopped,pressed the brakes on __,English,43,F,M,long_filler,object_low,15,bicycles,15,12,2,Yes,NA,10,stopped bicycles,1,13.402223753015846
8,7901,decomposed,put __ in a compost pile for a month,English,43,F,M,long_filler,object_high,7,banana peels,15,13,2,Yes,NA,11,decomposed banana peels,0.4666666666666667,13.147252019709121
8,5832,rhymed,wrote __,English,43,M,M,Some,object_mid,5,songs,15,14,2,Yes,NA,12,rhymed songs,0.3333333333333333,9.154605076588458
8,10951,exploded,heated up __ in a microwave,English,43,F,F,long_filler,object_mid,15,balls of tin foil,15,15,2,Yes,NA,13,exploded balls of tin foil,1,11.403316050279962
8,7631,honked,cut off __,English,43,M,M,Some,object_low,6,bicyclists,15,16,2,Yes,NA,14,honked bicyclists,0.4,5.317873569706685
8,9047,ran out of batteries,left __ on (and unplugged) all day,English,43,F,F,Some,object_high,14,laptops,15,17,2,Yes,NA,15,ran out of batteries laptops,0.9333333333333333,12.969289999403273
8,6820,blew away,left __ on a table on a windy day,English,43,F,F,Some,object_mid,11,hats,15,18,2,Yes,NA,16,blew away hats,0.7333333333333333,11.052387485109298
8,7581,exploded,lit __,English,43,M,F,short_filler,object_mid,15,fireworks,15,19,2,Yes,NA,17,exploded fireworks,1,12.834754345666402
8,10132,beeped,left the lights on in __,English,43,F,M,short_filler,object_high,15,new cars,15,20,2,Yes,NA,18,beeped new cars,1,9.052822868614953
8,10136,got stained,spilled red nail polish on __,English,43,M,F,Some,object_mid,15,white shirts,15,21,2,Yes,NA,19,got stained white shirts,1,14.179492921634642
8,6616,lit up,pressed the 'on' button on __,English,43,M,M,Some,object_high,9,flashlights,15,22,2,Yes,NA,20,lit up flashlights,0.6,12.642749860431877
8,8080,dissolved,put __ in a bucket of water,English,43,M,F,short_filler,object_high,15,sugar cubes,15,23,2,Yes,NA,21,dissolved sugar cubes,1,14.137852924451185
8,6036,laughed,told a joke to __,English,43,M,M,All,object_high,15,kids,15,24,2,Yes,NA,22,laughed kids,1,9.49379625023112
8,5248,were green,saw __,English,43,M,M,All,object_low,15,strawberries,15,25,2,Yes,NA,23,were green strawberries,1,3.8450290098690334
8,5918,fell down,punched __,English,43,F,F,long_filler,object_low,7,shelves,15,26,2,Yes,NA,24,fell down shelves,0.4666666666666667,6.721416845326691
8,5949,burnt,threw __ into a fire,English,43,F,F,All,object_low,15,rocks,15,27,2,Yes,NA,25,burnt rocks,1,4.621885587211013
8,8003,reflected the sunlight,placed __ in the sun,English,43,M,M,short_filler,object_low,15,phone screens,15,28,2,Yes,NA,26,reflected the sunlight phone screens,1,13.200526028593703
8,5630,rolled,pushed __,English,43,M,F,All,object_low,15,toy cars,15,29,2,Yes,NA,27,rolled toy cars,1,13.15225908088078
8,6684,sank,threw __ into a pool,English,43,F,M,None,object_mid,0,cups,15,30,2,Yes,NA,28,sank cups,0,6.20158939454454
8,5066,melted,left __ in the hot sun,English,43,F,M,Some,object_mid,11,crayons,15,31,2,Yes,NA,29,melted crayons,0.7333333333333333,13.231037108035327
8,10116,had the letter Z in them,wrote __,English,43,F,F,None,object_high,0,novels,15,32,2,Yes,NA,30,had the letter Z in them novels,0,12.417127900629465
9,22446,froze,put __ in the freezer,english,53,M,F,short_filler,object_mid,15,chocolate bars,15,3,0,Yes,NA,1,froze chocolate bars,1,13.981233371629443
9,6239,popped,poked __ with a pin,english,53,F,F,Some,object_low,7,eggs,15,4,0,Yes,NA,2,popped eggs,0.4666666666666667,8.683263088658803
9,6232,lit up,pressed the 'on' button on __,english,53,M,F,Some,object_high,7,flashlights,15,5,0,Yes,NA,3,lit up flashlights,0.4666666666666667,12.642749860431877
9,2672,sank,threw __ into a pool,english,53,F,F,All,object_high,15,marbles,15,6,0,Yes,NA,4,sank marbles,1,13.753390342917251
9,4144,honked,cut off __,english,53,M,M,Some,object_high,7,taxi drivers,15,7,0,Yes,NA,5,honked taxi drivers,0.4666666666666667,11.196844691877397
9,5648,ran out of batteries,left __ on (and unplugged) all day,english,53,F,M,None,object_low,0,phones,15,8,0,Yes,NA,6,ran out of batteries phones,0,9.489259741561506
9,3592,rolled,pushed __,english,53,M,F,None,object_mid,0,shopping carts,15,9,0,Yes,NA,7,rolled shopping carts,0,13.115460824610237
9,5959,had the letter Z in them,wrote __,english,53,M,F,Some,object_high,6,novels,15,10,0,Yes,NA,8,had the letter Z in them novels,0.4,12.417127900629465
9,4945,reflected the sunlight,placed __ in the sun,english,53,F,F,short_filler,object_high,15,mirrors,15,11,0,Yes,NA,9,reflected the sunlight mirrors,1,13.609731031190691
9,3576,were green,saw __,english,53,M,M,All,object_low,15,strawberries,15,12,0,Yes,NA,10,were green strawberries,1,3.8450290098690334
9,12672,stopped,pressed the brakes on __,english,53,M,M,long_filler,object_high,15,cars,15,13,0,Yes,NA,11,stopped cars,1,13.476028415983608
9,7480,exploded,heated up __ in a microwave,english,53,M,F,Some,object_mid,6,balls of tin foil,15,14,0,Yes,NA,12,exploded balls of tin foil,0.4,11.403316050279962
9,6688,beeped,left the lights on in __,english,53,M,M,Some,object_low,6,houses,15,15,0,Yes,NA,13,beeped houses,0.4,3.3887985484645995
9,5064,melted,left __ in the hot sun,english,53,F,M,long_filler,object_mid,15,crayons,15,16,0,Yes,NA,14,melted crayons,1,13.231037108035327
9,6328,stuck,glued __ to a piece of paper,english,53,M,F,Some,object_mid,7,sequins,15,17,0,Yes,NA,15,stuck sequins,0.4666666666666667,12.652303924869136
9,4120,burnt,threw __ into a fire,english,53,M,F,None,object_high,0,matches,15,18,0,Yes,NA,16,burnt matches,0,14.323536207549443
9,6583,rhymed,wrote __,english,53,F,F,long_filler,object_high,15,limericks,15,19,0,Yes,NA,17,rhymed limericks,1,12.14705218576939
9,8216,blew away,left __ on a table on a windy day,english,53,M,M,Some,object_mid,6,hats,15,20,0,Yes,NA,18,blew away hats,0.4,11.052387485109298
9,6833,ripped,used __ as dog toys,english,53,F,M,All,object_low,15,shoes,15,21,0,Yes,NA,19,ripped shoes,1,10.387117903875804
9,5056,decomposed,put __ in a compost pile for a month,english,53,M,F,None,object_mid,0,pinecones,15,22,0,Yes,NA,20,decomposed pinecones,0,9.491784817341596
9,7151,landed flat,tossed __,english,53,M,F,Some,object_high,7,coins,15,23,0,Yes,NA,21,landed flat coins,0.4666666666666667,12.937387615808788
9,7920,fell down,punched __,english,53,M,F,long_filler,object_high,15,card towers,15,24,0,Yes,NA,22,fell down card towers,1,13.763283883931667
9,5688,exploded,lit __,english,53,M,M,All,object_high,15,gas tanks,15,25,0,Yes,NA,23,exploded gas tanks,1,12.966228825360377
9,9103,ate the seeds,left seeds out for __,english,53,M,M,short_filler,object_high,8,birds,15,26,0,Yes,NA,24,ate the seeds birds,0.5333333333333333,12.365944808737018
9,11081,flashed,took a picture with __,english,53,F,M,short_filler,object_mid,15,phones,15,27,0,Yes,NA,25,flashed phones,1,9.01407984535733
9,7624,got stained,spilled red nail polish on __,english,53,M,M,long_filler,object_high,15,white carpets,15,28,0,Yes,NA,26,got stained white carpets,1,14.128146496766012
9,6688,stuck to the wall,threw __ against a wall,english,53,F,F,None,object_high,0,pieces of gum,15,29,0,Yes,NA,27,stuck to the wall pieces of gum,0,7.253162612975175
9,7064,broke,ran __ over with a car,english,53,F,F,short_filler,object_mid,10,boxes,15,30,0,Yes,NA,28,broke boxes,0.6666666666666666,13.227516378151478
9,8275,dissolved,put __ in a bucket of water,english,53,F,M,All,object_low,15,carrots,15,31,0,Yes,NA,29,dissolved carrots,1,1.2853167551527385
9,5156,laughed,told a joke to __,english,53,F,F,Some,object_mid,6,comedians,15,32,0,Yes,NA,30,laughed comedians,0.4,8.440146775068634
10,8228,burnt,threw __ into a fire,English,60,F,F,long_filler,object_high,15,matches,15,3,2,Yes,NA,1,burnt matches,1,14.323536207549443
10,7756,rolled,pushed __,English,60,F,F,Some,object_high,10,wheelchairs,15,4,2,Yes,NA,2,rolled wheelchairs,0.6666666666666666,14.081890892791053
10,7875,ran out of batteries,left __ on (and unplugged) all day,English,60,M,M,short_filler,object_mid,15,bike lights,15,5,2,Yes,NA,3,ran out of batteries bike lights,1,11.54386203761813
10,6960,flashed,took a picture with __,English,60,M,F,Some,object_mid,8,phones,15,6,2,Yes,NA,4,flashed phones,0.5333333333333333,9.01407984535733
10,4879,reflected the sunlight,placed __ in the sun,English,60,M,M,None,object_high,0,mirrors,15,7,2,Yes,NA,5,reflected the sunlight mirrors,0,13.609731031190691
10,2778,popped,poked __ with a pin,English,60,F,M,All,object_low,15,eggs,15,8,2,Yes,NA,6,popped eggs,1,8.683263088658803
10,7360,ate the seeds,left seeds out for __,English,60,M,M,short_filler,object_mid,15,butterflies,15,9,2,Yes,NA,7,ate the seeds butterflies,1,8.606938580395987
10,3294,exploded,lit __,English,60,M,M,None,object_mid,0,fireworks,15,10,2,Yes,NA,8,exploded fireworks,0,12.834754345666402
10,6352,stuck to the wall,threw __ against a wall,English,60,M,M,Some,object_high,6,pieces of gum,15,11,2,Yes,NA,9,stuck to the wall pieces of gum,0.4,7.253162612975175
10,6239,fell down,punched __,English,60,F,M,Some,object_low,5,shelves,15,12,2,Yes,NA,10,fell down shelves,0.3333333333333333,6.721416845326691
10,2865,rhymed,wrote __,English,60,M,F,None,object_mid,0,songs,15,13,2,Yes,NA,11,rhymed songs,0,9.154605076588458
10,4904,were green,saw __,English,60,F,F,short_filler,object_high,15,clovers,15,14,2,Yes,NA,12,were green clovers,1,14.178248739336857
10,4368,lit up,pressed the 'on' button on __,English,60,F,F,All,object_high,15,flashlights,15,15,2,Yes,NA,13,lit up flashlights,1,12.642749860431877
10,13480,dissolved,put __ in a bucket of water,English,60,M,F,short_filler,object_mid,0,oreos,15,16,2,Yes,NA,14,dissolved oreos,0,10.873526102810693
10,9352,got stained,spilled red nail polish on __,English,60,M,F,All,object_low,15,white tablecloths,15,17,2,Yes,NA,15,got stained white tablecloths,1,13.882496788490633
10,5701,stuck,glued __ to a piece of paper,English,60,F,F,All,object_low,15,beads,15,18,2,Yes,NA,16,stuck beads,1,12.048584480716158
10,6921,laughed,told a joke to __,English,60,F,F,short_filler,object_high,15,kids,15,19,2,Yes,NA,17,laughed kids,1,9.49379625023112
10,9583,beeped,left the lights on in __,English,60,F,M,Some,object_mid,7,old cars,15,20,2,Yes,NA,18,beeped old cars,0.4666666666666667,3.376453592389398
10,4551,broke,ran __ over with a car,English,60,F,M,Some,object_high,12,sunglasses,15,21,2,Yes,NA,19,broke sunglasses,0.8,14.107479459023798
10,9039,landed flat,tossed __,English,60,F,F,Some,object_mid,10,pancakes,15,22,2,Yes,NA,20,landed flat pancakes,0.6666666666666666,11.896584800305092
10,5712,sank,threw __ into a pool,English,60,F,M,long_filler,object_low,0,balloons,15,23,2,Yes,NA,21,sank balloons,0,1.5445100044791333
10,7983,stopped,pressed the brakes on __,English,60,F,M,Some,object_low,6,bicycles,15,24,2,Yes,NA,22,stopped bicycles,0.4,13.402223753015846
10,4840,blew away,left __ on a table on a windy day,English,60,F,M,None,object_mid,0,hats,15,25,2,Yes,NA,23,blew away hats,0,11.052387485109298
10,10542,had the letter Z in them,wrote __,English,60,F,M,long_filler,object_high,15,novels,15,26,2,Yes,NA,24,had the letter Z in them novels,1,12.417127900629465
10,9438,decomposed,put __ in a compost pile for a month,English,60,M,M,long_filler,object_low,0,soda cans,15,27,2,Yes,NA,25,decomposed soda cans,0,2.187018475900629
10,4760,honked,cut off __,English,60,M,F,Some,object_low,7,bicyclists,15,28,2,Yes,NA,26,honked bicyclists,0.4666666666666667,5.317873569706685
10,9472,ripped,used __ as dog toys,English,60,F,F,Some,object_low,6,shoes,15,29,2,Yes,NA,27,ripped shoes,0.4,10.387117903875804
10,4960,exploded,heated up __ in a microwave,English,60,F,F,All,object_mid,15,balls of tin foil,15,30,2,Yes,NA,28,exploded balls of tin foil,1,11.403316050279962
10,4254,froze,put __ in the freezer,English,60,F,F,None,object_mid,0,chocolate bars,15,31,2,Yes,NA,29,froze chocolate bars,0,13.981233371629443
10,4464,melted,left __ in the hot sun,English,60,M,F,long_filler,object_mid,15,crayons,15,32,2,Yes,NA,30,melted crayons,1,13.231037108035327
11,4664,stuck,glued __ to a piece of paper,English,24,M,M,None,object_low,0,beads,15,3,2,Yes,NA,1,stuck beads,0,12.048584480716158
11,2096,landed flat,tossed __,English,24,F,M,All,object_high,15,coins,15,4,2,Yes,NA,2,landed flat coins,1,12.937387615808788
11,1999,stuck to the wall,threw __ against a wall,English,24,M,F,None,object_low,0,baseballs,15,5,2,Yes,NA,3,stuck to the wall baseballs,0,2.260884648323793
11,4521,exploded,lit __,English,24,F,F,long_filler,object_low,11,candles,15,6,2,Yes,NA,4,exploded candles,0.7333333333333333,1.159048787109265
11,2561,reflected the sunlight,placed __ in the sun,English,24,F,M,Some,object_mid,8,diamonds,15,7,2,Yes,NA,5,reflected the sunlight diamonds,0.5333333333333333,14.033830597116333
11,3199,ate the seeds,left seeds out for __,English,24,M,M,short_filler,object_low,10,dogs,15,8,2,Yes,NA,6,ate the seeds dogs,0.6666666666666666,6.344011650905836
11,3192,exploded,heated up __ in a microwave,English,24,M,F,long_filler,object_mid,10,balls of tin foil,15,9,2,Yes,NA,7,exploded balls of tin foil,0.6666666666666666,11.403316050279962
11,2303,ran out of batteries,left __ on (and unplugged) all day,English,24,F,F,Some,object_low,8,phones,15,10,2,Yes,NA,8,ran out of batteries phones,0.5333333333333333,9.489259741561506
11,1872,rhymed,wrote __,English,24,F,F,None,object_low,0,poems,15,11,2,Yes,NA,9,rhymed poems,0,9.78994930986818
11,2512,honked,cut off __,English,24,M,F,short_filler,object_high,11,taxi drivers,15,12,2,Yes,NA,10,honked taxi drivers,0.7333333333333333,11.196844691877397
11,2153,melted,left __ in the hot sun,English,24,M,M,All,object_low,15,pencils,15,13,2,Yes,NA,11,melted pencils,1,2.4374810535720317
11,2135,were green,saw __,English,24,M,M,Some,object_high,7,clovers,15,14,2,Yes,NA,12,were green clovers,0.4666666666666667,14.178248739336857
11,4257,decomposed,put __ in a compost pile for a month,English,24,M,F,long_filler,object_low,15,soda cans,15,15,2,Yes,NA,13,decomposed soda cans,1,2.187018475900629
11,2103,burnt,threw __ into a fire,English,24,F,F,Some,object_low,8,rocks,15,16,2,Yes,NA,14,burnt rocks,0.5333333333333333,4.621885587211013
11,1984,beeped,left the lights on in __,English,24,M,M,All,object_high,15,new cars,15,17,2,Yes,NA,15,beeped new cars,1,9.052822868614953
11,2984,fell down,punched __,English,24,M,F,short_filler,object_high,12,card towers,15,18,2,Yes,NA,16,fell down card towers,0.8,13.763283883931667
11,3271,flashed,took a picture with __,English,24,F,F,Some,object_low,7,webcams,15,19,2,Yes,NA,17,flashed webcams,0.4666666666666667,6.31436691074992
11,1761,sank,threw __ into a pool,English,24,M,M,Some,object_high,8,marbles,15,20,2,Yes,NA,18,sank marbles,0.5333333333333333,13.753390342917251
11,1551,blew away,left __ on a table on a windy day,English,24,F,F,All,object_mid,15,hats,15,21,2,Yes,NA,19,blew away hats,1,11.052387485109298
11,4409,popped,poked __ with a pin,English,24,M,F,long_filler,object_high,15,bubbles,15,22,2,Yes,NA,20,popped bubbles,1,14.421873858181714
11,4839,laughed,told a joke to __,English,24,M,F,Some,object_high,8,kids,15,23,2,Yes,NA,21,laughed kids,0.5333333333333333,9.49379625023112
11,2288,rolled,pushed __,English,24,F,F,All,object_mid,15,shopping carts,15,24,2,Yes,NA,22,rolled shopping carts,1,13.115460824610237
11,3209,dissolved,put __ in a bucket of water,English,24,M,F,Some,object_mid,8,oreos,15,25,2,Yes,NA,23,dissolved oreos,0.5333333333333333,10.873526102810693
11,3976,broke,ran __ over with a car,English,24,M,F,None,object_mid,0,boxes,15,26,2,Yes,NA,24,broke boxes,0,13.227516378151478
11,3304,lit up,pressed the 'on' button on __,English,24,F,F,long_filler,object_low,10,cd-players,15,27,2,Yes,NA,25,lit up cd-players,0.6666666666666666,12.391837229251065
11,3936,stopped,pressed the brakes on __,English,24,F,F,Some,object_high,8,cars,15,28,2,Yes,NA,26,stopped cars,0.5333333333333333,13.476028415983608
11,1679,had the letter Z in them,wrote __,English,24,M,F,Some,object_low,8,birthday cards,15,29,2,Yes,NA,27,had the letter Z in them birthday cards,0.5333333333333333,2.838703299024723
11,2425,ripped,used __ as dog toys,English,24,F,M,None,object_mid,9,shirts,15,30,2,Yes,NA,28,ripped shirts,0.6,10.860010931867507
11,5903,froze,put __ in the freezer,English,24,M,F,short_filler,object_mid,15,chocolate bars,15,31,2,Yes,NA,29,froze chocolate bars,1,13.981233371629443
11,2496,got stained,spilled red nail polish on __,English,24,M,M,short_filler,object_mid,11,white shirts,15,32,2,Yes,NA,30,got stained white shirts,0.7333333333333333,14.179492921634642
12,9867,got stained,spilled red nail polish on __,English,29,F,F,None,object_mid,0,white shirts,15,3,2,Yes,NA,1,got stained white shirts,0,14.179492921634642
12,4799,exploded,lit __,English,29,F,M,All,object_mid,15,fireworks,15,4,2,Yes,NA,2,exploded fireworks,1,12.834754345666402
12,4718,exploded,heated up __ in a microwave,English,29,M,M,All,object_mid,15,balls of tin foil,15,5,2,Yes,NA,3,exploded balls of tin foil,1,11.403316050279962
12,7625,beeped,left the lights on in __,English,29,M,F,Some,object_high,8,new cars,15,6,2,Yes,NA,4,beeped new cars,0.5333333333333333,9.052822868614953
12,3571,ate the seeds,left seeds out for __,English,29,M,M,Some,object_mid,7,butterflies,15,7,2,Yes,NA,5,ate the seeds butterflies,0.4666666666666667,8.606938580395987
12,11895,lit up,pressed the 'on' button on __,English,29,F,F,long_filler,object_mid,15,computers,15,8,2,Yes,NA,6,lit up computers,1,13.410494165057099
12,4352,rolled,pushed __,English,29,F,F,All,object_mid,15,shopping carts,15,9,2,Yes,NA,7,rolled shopping carts,1,13.115460824610237
12,10117,sank,threw __ into a pool,English,29,F,M,Some,object_low,3,balloons,15,10,2,Yes,NA,8,sank balloons,0.2,1.5445100044791333
12,3718,stuck to the wall,threw __ against a wall,English,29,M,F,None,object_mid,0,cakes,15,11,2,Yes,NA,9,stuck to the wall cakes,0,5.0530497893902515
12,6463,rhymed,wrote __,English,29,F,F,long_filler,object_low,11,poems,15,12,2,Yes,NA,10,rhymed poems,0.7333333333333333,9.78994930986818
12,7265,flashed,took a picture with __,English,29,F,F,short_filler,object_low,15,webcams,15,13,2,Yes,NA,11,flashed webcams,1,6.31436691074992
12,4219,blew away,left __ on a table on a windy day,English,29,M,F,short_filler,object_high,15,napkins,15,14,2,Yes,NA,12,blew away napkins,1,13.88454430875539
12,4234,broke,ran __ over with a car,English,29,F,M,short_filler,object_mid,15,boxes,15,15,2,Yes,NA,13,broke boxes,1,13.227516378151478
12,5537,dissolved,put __ in a bucket of water,English,29,M,M,long_filler,object_mid,15,oreos,15,16,2,Yes,NA,14,dissolved oreos,1,10.873526102810693
12,7917,stopped,pressed the brakes on __,English,29,M,F,Some,object_low,10,bicycles,15,17,2,Yes,NA,15,stopped bicycles,0.6666666666666666,13.402223753015846
12,7451,popped,poked __ with a pin,English,29,F,M,Some,object_high,10,bubbles,15,18,2,Yes,NA,16,popped bubbles,0.6666666666666666,14.421873858181714
12,4429,reflected the sunlight,placed __ in the sun,English,29,F,M,None,object_low,0,phone screens,15,19,2,Yes,NA,17,reflected the sunlight phone screens,0,13.200526028593703
12,4286,melted,left __ in the hot sun,English,29,F,F,Some,object_low,4,pencils,15,20,2,Yes,NA,18,melted pencils,0.26666666666666666,2.4374810535720317
12,5548,decomposed,put __ in a compost pile for a month,English,29,M,M,Some,object_mid,7,pinecones,15,21,2,Yes,NA,19,decomposed pinecones,0.4666666666666667,9.491784817341596
12,4469,had the letter Z in them,wrote __,English,29,F,F,None,object_low,0,birthday cards,15,22,2,Yes,NA,20,had the letter Z in them birthday cards,0,2.838703299024723
12,3582,were green,saw __,English,29,F,F,Some,object_high,11,clovers,15,23,2,Yes,NA,21,were green clovers,0.7333333333333333,14.178248739336857
12,3614,laughed,told a joke to __,English,29,M,M,None,object_low,0,lawyers,15,24,2,Yes,NA,22,laughed lawyers,0,8.501712492528245
12,4154,stuck,glued __ to a piece of paper,English,29,M,M,Some,object_mid,8,sequins,15,25,2,Yes,NA,23,stuck sequins,0.5333333333333333,12.652303924869136
12,3832,burnt,threw __ into a fire,English,29,F,M,Some,object_mid,10,books,15,26,2,Yes,NA,24,burnt books,0.6666666666666666,14.051080994101962
12,3715,landed flat,tossed __,English,29,F,M,All,object_low,15,notebooks,15,27,2,Yes,NA,25,landed flat notebooks,1,12.070264558564942
12,4439,honked,cut off __,English,29,F,F,long_filler,object_mid,15,bus drivers,15,28,2,Yes,NA,26,honked bus drivers,1,10.112891699999901
12,7347,fell down,punched __,English,29,M,F,All,object_low,15,shelves,15,29,2,Yes,NA,27,fell down shelves,1,6.721416845326691
12,6634,ripped,used __ as dog toys,English,29,M,F,long_filler,object_mid,15,shirts,15,30,2,Yes,NA,28,ripped shirts,1,10.860010931867507
12,7466,ran out of batteries,left __ on (and unplugged) all day,English,29,M,M,short_filler,object_low,15,phones,15,31,2,Yes,NA,29,ran out of batteries phones,1,9.489259741561506
12,5963,froze,put __ in the freezer,English,29,M,M,short_filler,object_high,15,berries,15,32,2,Yes,NA,30,froze berries,1,14.377259004987641
13,6877,landed flat,tossed __,English,22,F,F,All,object_high,15,coins,15,3,2,No,NA,1,landed flat coins,1,12.937387615808788
13,11653,popped,poked __ with a pin,English,22,M,F,Some,object_mid,5,balloons,15,4,2,No,NA,2,popped balloons,0.3333333333333333,14.185919225153699
13,15318,broke,ran __ over with a car,English,22,M,F,long_filler,object_high,15,sunglasses,15,5,2,No,NA,3,broke sunglasses,1,14.107479459023798
13,8698,ran out of batteries,left __ on (and unplugged) all day,English,22,F,F,short_filler,object_low,15,phones,15,6,2,No,NA,4,ran out of batteries phones,1,9.489259741561506
13,8571,burnt,threw __ into a fire,English,22,M,M,Some,object_high,15,matches,15,7,2,No,NA,5,burnt matches,1,14.323536207549443
13,4835,sank,threw __ into a pool,English,22,M,F,long_filler,object_high,15,marbles,15,8,2,No,NA,6,sank marbles,1,13.753390342917251
13,5435,stuck to the wall,threw __ against a wall,English,22,F,M,None,object_high,0,pieces of gum,15,9,2,No,NA,7,stuck to the wall pieces of gum,0,7.253162612975175
13,7093,ripped,used __ as dog toys,English,22,M,M,short_filler,object_high,15,books,15,10,2,No,NA,8,ripped books,1,12.65668880089622
13,7264,decomposed,put __ in a compost pile for a month,English,22,F,M,All,object_mid,15,pinecones,15,11,2,No,NA,9,decomposed pinecones,1,9.491784817341596
13,7103,exploded,lit __,English,22,F,F,All,object_low,15,candles,15,12,2,No,NA,10,exploded candles,1,1.159048787109265
13,6319,reflected the sunlight,placed __ in the sun,English,22,M,M,None,object_mid,0,diamonds,15,13,2,No,NA,11,reflected the sunlight diamonds,0,14.033830597116333
13,10504,beeped,left the lights on in __,English,22,M,M,short_filler,object_mid,0,old cars,15,14,2,No,NA,12,beeped old cars,0,3.376453592389398
13,6824,stuck,glued __ to a piece of paper,English,22,M,M,short_filler,object_low,15,beads,15,15,2,No,NA,13,stuck beads,1,12.048584480716158
13,6542,honked,cut off __,English,22,M,F,Some,object_mid,7,bus drivers,15,16,2,No,NA,14,honked bus drivers,0.4666666666666667,10.112891699999901
13,6721,ate the seeds,left seeds out for __,English,22,M,F,Some,object_low,7,dogs,15,17,2,No,NA,15,ate the seeds dogs,0.4666666666666667,6.344011650905836
13,12616,froze,put __ in the freezer,English,22,F,F,None,object_low,0,bottles of hand soap,15,18,2,No,NA,16,froze bottles of hand soap,0,10.935477411822802
13,7919,rolled,pushed __,English,22,M,F,Some,object_mid,9,shopping carts,15,19,2,No,NA,17,rolled shopping carts,0.6,13.115460824610237
13,5631,laughed,told a joke to __,English,22,M,M,Some,object_mid,6,comedians,15,20,2,No,NA,18,laughed comedians,0.4,8.440146775068634
13,5495,flashed,took a picture with __,English,22,M,M,None,object_mid,0,phones,15,21,2,No,NA,19,flashed phones,0,9.01407984535733
13,5831,rhymed,wrote __,English,22,M,F,Some,object_low,7,poems,15,22,2,No,NA,20,rhymed poems,0.4666666666666667,9.78994930986818
13,12600,stopped,pressed the brakes on __,English,22,M,F,long_filler,object_low,0,bicycles,15,23,2,No,NA,21,stopped bicycles,0,13.402223753015846
13,7182,got stained,spilled red nail polish on __,English,22,M,F,short_filler,object_low,15,white tablecloths,15,24,2,No,NA,22,got stained white tablecloths,1,13.882496788490633
13,6798,had the letter Z in them,wrote __,English,22,M,F,All,object_mid,15,love notes,15,25,2,No,NA,23,had the letter Z in them love notes,1,5.775082649817127
13,5585,blew away,left __ on a table on a windy day,English,22,F,M,Some,object_low,6,backpacks,15,26,2,No,NA,24,blew away backpacks,0.4,3.1859673290741206
13,4144,were green,saw __,English,22,F,F,All,object_mid,15,bananas,15,27,2,No,NA,25,were green bananas,1,5.5415456638101155
13,4264,exploded,heated up __ in a microwave,English,22,M,F,Some,object_high,7,eggs,15,28,2,No,NA,26,exploded eggs,0.4666666666666667,9.615133869640113
13,7680,fell down,punched __,English,22,M,M,long_filler,object_mid,15,block towers,15,29,2,No,NA,27,fell down block towers,1,12.263438501967169
13,7591,lit up,pressed the 'on' button on __,English,22,F,M,long_filler,object_mid,15,computers,15,30,2,No,NA,28,lit up computers,1,13.410494165057099
13,7026,melted,left __ in the hot sun,English,22,M,M,Some,object_mid,8,crayons,15,31,2,No,NA,29,melted crayons,0.5333333333333333,13.231037108035327
13,3981,dissolved,put __ in a bucket of water,English,22,M,F,None,object_low,0,carrots,15,32,2,No,NA,30,dissolved carrots,0,1.2853167551527385
14,9582,stuck to the wall,threw __ against a wall,english,31,M,F,None,object_low,0,baseballs,15,3,1,Yes,NA,1,stuck to the wall baseballs,0,2.260884648323793
14,3708,broke,ran __ over with a car,english,31,M,F,Some,object_high,3,sunglasses,15,4,1,Yes,NA,2,broke sunglasses,0.2,14.107479459023798
14,3077,stuck,glued __ to a piece of paper,english,31,F,M,Some,object_high,3,stickers,15,5,1,Yes,NA,3,stuck stickers,0.2,13.73601014908744
14,1556,landed flat,tossed __,english,31,M,M,Some,object_high,4,coins,15,6,1,Yes,NA,4,landed flat coins,0.26666666666666666,12.937387615808788
14,2592,stopped,pressed the brakes on __,english,31,M,M,Some,object_low,5,bicycles,15,7,1,Yes,NA,5,stopped bicycles,0.3333333333333333,13.402223753015846
14,1897,exploded,lit __,english,31,F,M,Some,object_high,4,gas tanks,15,8,1,Yes,NA,6,exploded gas tanks,0.26666666666666666,12.966228825360377
14,2525,exploded,heated up __ in a microwave,english,31,M,F,All,object_low,15,CDs,15,9,1,Yes,NA,7,exploded CDs,1,7.84924747413427
14,2348,honked,cut off __,english,31,F,M,Some,object_mid,5,bus drivers,15,10,1,Yes,NA,8,honked bus drivers,0.3333333333333333,10.112891699999901
14,1925,laughed,told a joke to __,english,31,M,M,short_filler,object_mid,9,comedians,15,11,1,Yes,NA,9,laughed comedians,0.6,8.440146775068634
14,4796,ripped,used __ as dog toys,english,31,F,M,All,object_low,15,shoes,15,12,1,Yes,NA,10,ripped shoes,1,10.387117903875804
14,3039,were green,saw __,english,31,M,F,None,object_mid,0,bananas,15,13,1,Yes,NA,11,were green bananas,0,5.5415456638101155
14,1619,decomposed,put __ in a compost pile for a month,english,31,M,M,None,object_high,5,banana peels,15,14,1,Yes,NA,12,decomposed banana peels,0.3333333333333333,13.147252019709121
14,3331,ran out of batteries,left __ on (and unplugged) all day,english,31,F,F,All,object_mid,15,bike lights,15,15,1,Yes,NA,13,ran out of batteries bike lights,1,11.54386203761813
14,6062,reflected the sunlight,placed __ in the sun,english,31,M,F,long_filler,object_mid,8,diamonds,15,16,1,Yes,NA,14,reflected the sunlight diamonds,0.5333333333333333,14.033830597116333
14,1166,sank,threw __ into a pool,english,31,F,M,long_filler,object_high,7,marbles,15,17,1,Yes,NA,15,sank marbles,0.4666666666666667,13.753390342917251
14,4772,blew away,left __ on a table on a windy day,english,31,M,F,short_filler,object_high,3,napkins,15,18,1,Yes,NA,16,blew away napkins,0.2,13.88454430875539
14,2486,flashed,took a picture with __,english,31,M,F,All,object_high,15,cameras,15,19,1,Yes,NA,17,flashed cameras,1,9.940973957313002
14,1911,fell down,punched __,english,31,F,F,long_filler,object_low,5,shelves,15,20,1,Yes,NA,18,fell down shelves,0.3333333333333333,6.721416845326691
14,6653,got stained,spilled red nail polish on __,english,31,M,F,short_filler,object_high,15,white carpets,15,21,1,Yes,NA,19,got stained white carpets,1,14.128146496766012
14,3269,rolled,pushed __,english,31,F,M,All,object_mid,15,shopping carts,15,22,1,Yes,NA,20,rolled shopping carts,1,13.115460824610237
14,2648,had the letter Z in them,wrote __,english,31,F,F,Some,object_high,2,novels,15,23,1,Yes,NA,21,had the letter Z in them novels,0.13333333333333333,12.417127900629465
14,3736,burnt,threw __ into a fire,english,31,F,F,Some,object_mid,7,books,15,24,1,Yes,NA,22,burnt books,0.4666666666666667,14.051080994101962
14,1995,popped,poked __ with a pin,english,31,F,F,long_filler,object_high,7,bubbles,15,25,1,Yes,NA,23,popped bubbles,0.4666666666666667,14.421873858181714
14,3304,lit up,pressed the 'on' button on __,english,31,F,F,None,object_high,0,flashlights,15,26,1,Yes,NA,24,lit up flashlights,0,12.642749860431877
14,3271,ate the seeds,left seeds out for __,english,31,F,M,None,object_low,0,dogs,15,27,1,Yes,NA,25,ate the seeds dogs,0,6.344011650905836
14,5110,melted,left __ in the hot sun,english,31,F,M,long_filler,object_low,5,pencils,15,28,1,Yes,NA,26,melted pencils,0.3333333333333333,2.4374810535720317
14,2411,froze,put __ in the freezer,english,31,F,F,Some,object_high,10,berries,15,29,1,Yes,NA,27,froze berries,0.6666666666666666,14.377259004987641
14,3336,dissolved,put __ in a bucket of water,english,31,F,M,short_filler,object_mid,6,oreos,15,30,1,Yes,NA,28,dissolved oreos,0.4,10.873526102810693
14,3504,rhymed,wrote __,english,31,M,F,short_filler,object_low,6,poems,15,31,1,Yes,NA,29,rhymed poems,0.4,9.78994930986818
14,3103,beeped,left the lights on in __,english,31,F,M,Some,object_low,9,houses,15,32,1,Yes,NA,30,beeped houses,0.6,3.3887985484645995
15,16690,got stained,spilled red nail polish on __,English,29,M,M,Some,object_high,15,white carpets,15,3,2,Yes,Thank you!,1,got stained white carpets,1,14.128146496766012
15,8169,ran out of batteries,left __ on (and unplugged) all day,English,29,F,M,None,object_high,0,laptops,15,4,2,Yes,Thank you!,2,ran out of batteries laptops,0,12.969289999403273
15,7257,stuck,glued __ to a piece of paper,English,29,M,M,All,object_high,15,stickers,15,5,2,Yes,Thank you!,3,stuck stickers,1,13.73601014908744
15,23109,were green,saw __,English,29,M,M,Some,object_low,7,strawberries,15,6,2,Yes,Thank you!,4,were green strawberries,0.4666666666666667,3.8450290098690334
15,10750,beeped,left the lights on in __,English,29,F,F,Some,object_mid,6,old cars,15,7,2,Yes,Thank you!,5,beeped old cars,0.4,3.376453592389398
15,11749,ate the seeds,left seeds out for __,English,29,M,F,long_filler,object_high,0,birds,15,8,2,Yes,Thank you!,6,ate the seeds birds,0,12.365944808737018
15,5370,honked,cut off __,English,29,F,M,All,object_mid,15,bus drivers,15,9,2,Yes,Thank you!,7,honked bus drivers,1,10.112891699999901
15,6233,laughed,told a joke to __,English,29,F,F,short_filler,object_high,0,kids,15,10,2,Yes,Thank you!,8,laughed kids,0,9.49379625023112
15,6429,blew away,left __ on a table on a windy day,English,29,F,F,All,object_low,15,backpacks,15,11,2,Yes,Thank you!,9,blew away backpacks,1,3.1859673290741206
15,6794,reflected the sunlight,placed __ in the sun,English,29,F,M,short_filler,object_low,15,phone screens,15,12,2,Yes,Thank you!,10,reflected the sunlight phone screens,1,13.200526028593703
15,8694,decomposed,put __ in a compost pile for a month,English,29,M,F,None,object_low,0,soda cans,15,13,2,Yes,Thank you!,11,decomposed soda cans,0,2.187018475900629
15,4785,stuck to the wall,threw __ against a wall,English,29,M,M,All,object_low,15,baseballs,15,14,2,Yes,Thank you!,12,stuck to the wall baseballs,1,2.260884648323793
15,6186,rolled,pushed __,English,29,M,M,long_filler,object_low,15,toy cars,15,15,2,Yes,Thank you!,13,rolled toy cars,1,13.15225908088078
15,4688,landed flat,tossed __,English,29,M,M,All,object_low,15,notebooks,15,16,2,Yes,Thank you!,14,landed flat notebooks,1,12.070264558564942
15,5175,lit up,pressed the 'on' button on __,English,29,F,F,None,object_high,0,flashlights,15,17,2,Yes,Thank you!,15,lit up flashlights,0,12.642749860431877
15,4067,popped,poked __ with a pin,English,29,M,M,short_filler,object_high,15,bubbles,15,18,2,Yes,Thank you!,16,popped bubbles,1,14.421873858181714
15,5102,dissolved,put __ in a bucket of water,English,29,M,F,short_filler,object_high,15,sugar cubes,15,19,2,Yes,Thank you!,17,dissolved sugar cubes,1,14.137852924451185
15,13125,fell down,punched __,English,29,F,M,Some,object_high,6,card towers,15,20,2,Yes,Thank you!,18,fell down card towers,0.4,13.763283883931667
15,26241,stopped,pressed the brakes on __,English,29,F,F,Some,object_low,10,bicycles,15,21,2,Yes,Thank you!,19,stopped bicycles,0.6666666666666666,13.402223753015846
15,7063,ripped,used __ as dog toys,English,29,M,M,Some,object_low,8,shoes,15,22,2,Yes,Thank you!,20,ripped shoes,0.5333333333333333,10.387117903875804
15,6040,flashed,took a picture with __,English,29,F,M,Some,object_mid,7,phones,15,23,2,Yes,Thank you!,21,flashed phones,0.4666666666666667,9.01407984535733
15,5734,exploded,heated up __ in a microwave,English,29,F,M,Some,object_low,10,CDs,15,24,2,Yes,Thank you!,22,exploded CDs,0.6666666666666666,7.84924747413427
15,6333,broke,ran __ over with a car,English,29,F,M,long_filler,object_high,15,sunglasses,15,25,2,Yes,Thank you!,23,broke sunglasses,1,14.107479459023798
15,4567,sank,threw __ into a pool,English,29,F,M,Some,object_mid,7,cups,15,26,2,Yes,Thank you!,24,sank cups,0.4666666666666667,6.20158939454454
15,7671,rhymed,wrote __,English,29,M,F,Some,object_mid,5,songs,15,27,2,Yes,Thank you!,25,rhymed songs,0.3333333333333333,9.154605076588458
15,5224,froze,put __ in the freezer,English,29,M,F,None,object_low,0,bottles of hand soap,15,28,2,Yes,Thank you!,26,froze bottles of hand soap,0,10.935477411822802
15,4092,melted,left __ in the hot sun,English,29,F,M,short_filler,object_high,15,ice cubes,15,29,2,Yes,Thank you!,27,melted ice cubes,1,14.08769806047017
15,4896,exploded,lit __,English,29,M,F,long_filler,object_mid,15,fireworks,15,30,2,Yes,Thank you!,28,exploded fireworks,1,12.834754345666402
15,6466,had the letter Z in them,wrote __,English,29,F,F,None,object_low,0,birthday cards,15,31,2,Yes,Thank you!,29,had the letter Z in them birthday cards,0,2.838703299024723
15,3471,burnt,threw __ into a fire,English,29,M,M,long_filler,object_mid,15,books,15,32,2,Yes,Thank you!,30,burnt books,1,14.051080994101962
16,6157,stopped,pressed the brakes on __,English,27,F,M,Some,object_high,5,cars,15,3,2,Yes,NA,1,stopped cars,0.3333333333333333,13.476028415983608
16,8179,burnt,threw __ into a fire,English,27,F,F,short_filler,object_high,15,matches,15,4,2,Yes,NA,2,burnt matches,1,14.323536207549443
16,5763,melted,left __ in the hot sun,English,27,F,F,Some,object_high,13,ice cubes,15,5,2,Yes,NA,3,melted ice cubes,0.8666666666666667,14.08769806047017
16,7066,popped,poked __ with a pin,English,27,M,M,long_filler,object_high,3,bubbles,15,6,2,Yes,NA,4,popped bubbles,0.2,14.421873858181714
16,32141,dissolved,put __ in a bucket of water,English,27,F,F,long_filler,object_high,8,sugar cubes,15,7,2,Yes,NA,5,dissolved sugar cubes,0.5333333333333333,14.137852924451185
16,8913,got stained,spilled red nail polish on __,English,27,F,M,All,object_mid,15,white shirts,15,8,2,Yes,NA,6,got stained white shirts,1,14.179492921634642
16,7746,flashed,took a picture with __,English,27,F,M,None,object_mid,0,phones,15,9,2,Yes,NA,7,flashed phones,0,9.01407984535733
16,8114,honked,cut off __,English,27,F,F,short_filler,object_high,15,taxi drivers,15,10,2,Yes,NA,8,honked taxi drivers,1,11.196844691877397
16,7117,rolled,pushed __,English,27,M,F,Some,object_low,7,toy cars,15,11,2,Yes,NA,9,rolled toy cars,0.4666666666666667,13.15225908088078
16,9317,stuck to the wall,threw __ against a wall,English,27,M,M,long_filler,object_high,2,pieces of gum,15,12,2,Yes,NA,10,stuck to the wall pieces of gum,0.13333333333333333,7.253162612975175
16,9374,rhymed,wrote __,English,27,F,F,Some,object_high,5,limericks,15,13,2,Yes,NA,11,rhymed limericks,0.3333333333333333,12.14705218576939
16,5744,lit up,pressed the 'on' button on __,English,27,M,M,All,object_high,15,flashlights,15,14,2,Yes,NA,12,lit up flashlights,1,12.642749860431877
16,14806,fell down,punched __,English,27,M,F,short_filler,object_mid,15,block towers,15,15,2,Yes,NA,13,fell down block towers,1,12.263438501967169
16,21265,ate the seeds,left seeds out for __,English,27,F,F,short_filler,object_mid,0,butterflies,15,16,2,Yes,NA,14,ate the seeds butterflies,0,8.606938580395987
16,5744,stuck,glued __ to a piece of paper,English,27,M,M,None,object_low,0,beads,15,17,2,Yes,NA,15,stuck beads,0,12.048584480716158
16,7530,ripped,used __ as dog toys,English,27,F,F,All,object_high,15,books,15,18,2,Yes,NA,16,ripped books,1,12.65668880089622
16,5953,broke,ran __ over with a car,English,27,M,M,Some,object_mid,6,boxes,15,19,2,Yes,NA,17,broke boxes,0.4,13.227516378151478
16,10329,laughed,told a joke to __,English,27,F,F,long_filler,object_low,13,lawyers,15,20,2,Yes,NA,18,laughed lawyers,0.8666666666666667,8.501712492528245
16,5810,landed flat,tossed __,English,27,M,M,Some,object_high,6,coins,15,21,2,Yes,NA,19,landed flat coins,0.4,12.937387615808788
16,10787,exploded,heated up __ in a microwave,English,27,M,F,Some,object_high,5,eggs,15,22,2,Yes,NA,20,exploded eggs,0.3333333333333333,9.615133869640113
16,7821,had the letter Z in them,wrote __,English,27,F,M,Some,object_mid,5,love notes,15,23,2,Yes,NA,21,had the letter Z in them love notes,0.3333333333333333,5.775082649817127
16,6606,reflected the sunlight,placed __ in the sun,English,27,F,M,All,object_mid,15,diamonds,15,24,2,Yes,NA,22,reflected the sunlight diamonds,1,14.033830597116333
16,6204,decomposed,put __ in a compost pile for a month,English,27,F,M,short_filler,object_mid,11,pinecones,15,25,2,Yes,NA,23,decomposed pinecones,0.7333333333333333,9.491784817341596
16,4718,froze,put __ in the freezer,English,27,F,M,None,object_mid,0,chocolate bars,15,26,2,Yes,NA,24,froze chocolate bars,0,13.981233371629443
16,5722,were green,saw __,English,27,F,M,None,object_low,0,strawberries,15,27,2,Yes,NA,25,were green strawberries,0,3.8450290098690334
16,7398,beeped,left the lights on in __,English,27,F,F,Some,object_high,4,new cars,15,28,2,Yes,NA,26,beeped new cars,0.26666666666666666,9.052822868614953
16,4309,ran out of batteries,left __ on (and unplugged) all day,English,27,M,M,All,object_high,15,laptops,15,29,2,Yes,NA,27,ran out of batteries laptops,1,12.969289999403273
16,4759,exploded,lit __,English,27,F,F,None,object_low,0,candles,15,30,2,Yes,NA,28,exploded candles,0,1.159048787109265
16,8038,blew away,left __ on a table on a windy day,English,27,M,M,long_filler,object_high,13,napkins,15,31,2,Yes,NA,29,blew away napkins,0.8666666666666667,13.88454430875539
16,6499,sank,threw __ into a pool,English,27,M,M,Some,object_high,5,marbles,15,32,2,Yes,NA,30,sank marbles,0.3333333333333333,13.753390342917251
17,11601,ripped,used __ as dog toys,ENGLISH,52,M,F,Some,object_high,6,books,15,3,1,Yes,NA,1,ripped books,0.4,12.65668880089622
17,13831,blew away,left __ on a table on a windy day,ENGLISH,52,F,M,long_filler,object_mid,9,hats,15,4,1,Yes,NA,2,blew away hats,0.6,11.052387485109298
17,14324,got stained,spilled red nail polish on __,ENGLISH,52,M,F,short_filler,object_high,15,white carpets,15,5,1,Yes,NA,3,got stained white carpets,1,14.128146496766012
17,9970,were green,saw __,ENGLISH,52,M,F,short_filler,object_mid,8,bananas,15,6,1,Yes,NA,4,were green bananas,0.5333333333333333,5.5415456638101155
17,10456,ate the seeds,left seeds out for __,ENGLISH,52,M,M,long_filler,object_mid,14,butterflies,15,7,1,Yes,NA,5,ate the seeds butterflies,0.9333333333333333,8.606938580395987
17,10960,sank,threw __ into a pool,ENGLISH,52,M,F,long_filler,object_mid,14,cups,15,8,1,Yes,NA,6,sank cups,0.9333333333333333,6.20158939454454
17,11226,reflected the sunlight,placed __ in the sun,ENGLISH,52,F,F,All,object_low,15,phone screens,15,9,1,Yes,NA,7,reflected the sunlight phone screens,1,13.200526028593703
17,7211,exploded,heated up __ in a microwave,ENGLISH,52,F,F,Some,object_mid,8,balls of tin foil,15,10,1,Yes,NA,8,exploded balls of tin foil,0.5333333333333333,11.403316050279962
17,5816,fell down,punched __,ENGLISH,52,M,F,Some,object_mid,7,block towers,15,11,1,Yes,NA,9,fell down block towers,0.4666666666666667,12.263438501967169
17,7784,melted,left __ in the hot sun,ENGLISH,52,F,M,None,object_high,0,ice cubes,15,12,1,Yes,NA,10,melted ice cubes,0,14.08769806047017
17,6413,popped,poked __ with a pin,ENGLISH,52,M,M,All,object_low,15,eggs,15,13,1,Yes,NA,11,popped eggs,1,8.683263088658803
17,5791,broke,ran __ over with a car,ENGLISH,52,M,M,Some,object_high,7,sunglasses,15,14,1,Yes,NA,12,broke sunglasses,0.4666666666666667,14.107479459023798
17,15183,decomposed,put __ in a compost pile for a month,ENGLISH,52,F,F,long_filler,object_low,15,soda cans,15,15,1,Yes,NA,13,decomposed soda cans,1,2.187018475900629
17,8637,stopped,pressed the brakes on __,ENGLISH,52,F,M,All,object_high,15,cars,15,16,1,Yes,NA,14,stopped cars,1,13.476028415983608
17,6024,exploded,lit __,ENGLISH,52,F,M,None,object_low,0,candles,15,17,1,Yes,NA,15,exploded candles,0,1.159048787109265
17,7186,stuck to the wall,threw __ against a wall,ENGLISH,52,M,M,All,object_low,15,baseballs,15,18,1,Yes,NA,16,stuck to the wall baseballs,1,2.260884648323793
17,6783,flashed,took a picture with __,ENGLISH,52,M,M,Some,object_mid,8,phones,15,19,1,Yes,NA,17,flashed phones,0.5333333333333333,9.01407984535733
17,5838,rolled,pushed __,ENGLISH,52,F,F,All,object_low,15,toy cars,15,20,1,Yes,NA,18,rolled toy cars,1,13.15225908088078
17,6123,had the letter Z in them,wrote __,ENGLISH,52,F,F,None,object_high,0,novels,15,21,1,Yes,NA,19,had the letter Z in them novels,0,12.417127900629465
17,14445,stuck,glued __ to a piece of paper,ENGLISH,52,F,F,short_filler,object_mid,9,sequins,15,22,1,Yes,NA,20,stuck sequins,0.6,12.652303924869136
17,14294,ran out of batteries,left __ on (and unplugged) all day,ENGLISH,52,F,F,short_filler,object_low,12,phones,15,23,1,Yes,NA,21,ran out of batteries phones,0.8,9.489259741561506
17,6283,lit up,pressed the 'on' button on __,ENGLISH,52,M,F,Some,object_high,8,flashlights,15,24,1,Yes,NA,22,lit up flashlights,0.5333333333333333,12.642749860431877
17,4834,rhymed,wrote __,ENGLISH,52,F,F,None,object_mid,0,songs,15,25,1,Yes,NA,23,rhymed songs,0,9.154605076588458
17,4280,froze,put __ in the freezer,ENGLISH,52,F,F,None,object_mid,0,chocolate bars,15,26,1,Yes,NA,24,froze chocolate bars,0,13.981233371629443
17,5794,burnt,threw __ into a fire,ENGLISH,52,M,M,Some,object_high,8,matches,15,27,1,Yes,NA,25,burnt matches,0.5333333333333333,14.323536207549443
17,4769,landed flat,tossed __,ENGLISH,52,M,M,Some,object_mid,8,pancakes,15,28,1,Yes,NA,26,landed flat pancakes,0.5333333333333333,11.896584800305092
17,13326,beeped,left the lights on in __,ENGLISH,52,M,M,long_filler,object_low,15,houses,15,29,1,Yes,NA,27,beeped houses,1,3.3887985484645995
17,8055,laughed,told a joke to __,ENGLISH,52,F,F,short_filler,object_high,15,kids,15,30,1,Yes,NA,28,laughed kids,1,9.49379625023112
17,6173,dissolved,put __ in a bucket of water,ENGLISH,52,F,M,Some,object_high,8,sugar cubes,15,31,1,Yes,NA,29,dissolved sugar cubes,0.5333333333333333,14.137852924451185
17,7634,honked,cut off __,ENGLISH,52,F,F,Some,object_mid,8,bus drivers,15,32,1,Yes,NA,30,honked bus drivers,0.5333333333333333,10.112891699999901
18,17066,beeped,left the lights on in __,English,34,M,F,Some,object_mid,3,old cars,15,3,2,Yes,NA,1,beeped old cars,0.2,3.376453592389398
18,7023,stopped,pressed the brakes on __,English,34,F,F,short_filler,object_low,15,bicycles,15,4,2,Yes,NA,2,stopped bicycles,1,13.402223753015846
18,11206,ran out of batteries,left __ on (and unplugged) all day,English,34,F,M,long_filler,object_low,4,phones,15,5,2,Yes,NA,3,ran out of batteries phones,0.26666666666666666,9.489259741561506
18,2631,flashed,took a picture with __,English,34,F,M,Some,object_high,10,cameras,15,6,2,Yes,NA,4,flashed cameras,0.6666666666666666,9.940973957313002
18,1488,landed flat,tossed __,English,34,M,M,long_filler,object_low,6,notebooks,15,7,2,Yes,NA,5,landed flat notebooks,0.4,12.070264558564942
18,768,froze,put __ in the freezer,English,34,F,M,Some,object_low,7,bottles of hand soap,15,8,2,Yes,NA,6,froze bottles of hand soap,0.4666666666666667,10.935477411822802
18,808,lit up,pressed the 'on' button on __,English,34,M,F,short_filler,object_mid,11,computers,15,9,2,Yes,NA,7,lit up computers,0.7333333333333333,13.410494165057099
18,1544,melted,left __ in the hot sun,English,34,M,F,All,object_low,4,pencils,15,10,2,Yes,NA,8,melted pencils,0.26666666666666666,2.4374810535720317
18,3080,rhymed,wrote __,English,34,F,M,None,object_mid,0,songs,15,11,2,Yes,NA,9,rhymed songs,0,9.154605076588458
18,3216,ripped,used __ as dog toys,English,34,F,M,long_filler,object_high,4,books,15,12,2,Yes,NA,10,ripped books,0.26666666666666666,12.65668880089622
18,7602,reflected the sunlight,placed __ in the sun,English,34,M,M,None,object_mid,0,diamonds,15,13,2,Yes,NA,11,reflected the sunlight diamonds,0,14.033830597116333
18,2365,popped,poked __ with a pin,English,34,F,F,short_filler,object_low,11,eggs,15,14,2,Yes,NA,12,popped eggs,0.7333333333333333,8.683263088658803
18,1879,were green,saw __,English,34,M,M,Some,object_mid,5,bananas,15,15,2,Yes,NA,13,were green bananas,0.3333333333333333,5.5415456638101155
18,3167,exploded,heated up __ in a microwave,English,34,F,F,All,object_high,15,eggs,15,16,2,Yes,NA,14,exploded eggs,1,9.615133869640113
18,2944,stuck to the wall,threw __ against a wall,English,34,F,F,long_filler,object_mid,8,cakes,15,17,2,Yes,NA,15,stuck to the wall cakes,0.5333333333333333,5.0530497893902515
18,5327,honked,cut off __,English,34,M,F,All,object_high,15,taxi drivers,15,18,2,Yes,NA,16,honked taxi drivers,1,11.196844691877397
18,1881,ate the seeds,left seeds out for __,English,34,M,M,Some,object_high,4,birds,15,19,2,Yes,NA,17,ate the seeds birds,0.26666666666666666,12.365944808737018
18,2591,sank,threw __ into a pool,English,34,M,F,Some,object_low,5,balloons,15,20,2,Yes,NA,18,sank balloons,0.3333333333333333,1.5445100044791333
18,2240,decomposed,put __ in a compost pile for a month,English,34,F,F,Some,object_low,3,soda cans,15,21,2,Yes,NA,19,decomposed soda cans,0.2,2.187018475900629
18,1793,dissolved,put __ in a bucket of water,English,34,F,M,None,object_low,0,carrots,15,22,2,Yes,NA,20,dissolved carrots,0,1.2853167551527385
18,1663,fell down,punched __,English,34,M,F,Some,object_high,5,card towers,15,23,2,Yes,NA,21,fell down card towers,0.3333333333333333,13.763283883931667
18,2625,laughed,told a joke to __,English,34,F,F,All,object_mid,15,comedians,15,24,2,Yes,NA,22,laughed comedians,1,8.440146775068634
18,2197,got stained,spilled red nail polish on __,English,34,F,M,Some,object_high,2,white carpets,15,25,2,Yes,NA,23,got stained white carpets,0.13333333333333333,14.128146496766012
18,36944,rolled,pushed __,English,34,F,M,Some,object_low,3,toy cars,15,26,2,Yes,NA,24,rolled toy cars,0.2,13.15225908088078
18,1735,broke,ran __ over with a car,English,34,M,M,All,object_low,15,logs,15,27,2,Yes,NA,25,broke logs,1,6.09848929758821
18,1959,exploded,lit __,English,34,M,M,short_filler,object_low,0,candles,15,28,2,Yes,NA,26,exploded candles,0,1.159048787109265
18,1976,burnt,threw __ into a fire,English,34,F,M,None,object_high,0,matches,15,29,2,Yes,NA,27,burnt matches,0,14.323536207549443
18,1672,stuck,glued __ to a piece of paper,English,34,F,M,None,object_mid,0,sequins,15,30,2,Yes,NA,28,stuck sequins,0,12.652303924869136
18,6624,had the letter Z in them,wrote __,English,34,M,M,long_filler,object_low,0,birthday cards,15,31,2,Yes,NA,29,had the letter Z in them birthday cards,0,2.838703299024723
18,2320,blew away,left __ on a table on a windy day,English,34,F,M,short_filler,object_high,8,napkins,15,32,2,Yes,NA,30,blew away napkins,0.5333333333333333,13.88454430875539
19,13278,popped,poked __ with a pin,English,27,M,M,Some,object_high,6,bubbles,15,3,1,Yes,NA,1,popped bubbles,0.4,14.421873858181714
19,3312,rolled,pushed __,English,27,F,F,Some,object_high,7,wheelchairs,15,4,1,Yes,NA,2,rolled wheelchairs,0.4666666666666667,14.081890892791053
19,3214,burnt,threw __ into a fire,English,27,F,M,None,object_high,0,matches,15,5,1,Yes,NA,3,burnt matches,0,14.323536207549443
19,2177,broke,ran __ over with a car,English,27,M,F,Some,object_high,6,sunglasses,15,6,1,Yes,NA,4,broke sunglasses,0.4,14.107479459023798
19,2334,decomposed,put __ in a compost pile for a month,English,27,F,F,None,object_high,0,banana peels,15,7,1,Yes,NA,5,decomposed banana peels,0,13.147252019709121
19,7347,ran out of batteries,left __ on (and unplugged) all day,English,27,M,F,long_filler,object_mid,5,bike lights,15,8,1,Yes,NA,6,ran out of batteries bike lights,0.3333333333333333,11.54386203761813
19,3798,stuck,glued __ to a piece of paper,English,27,F,M,None,object_mid,0,sequins,15,9,1,Yes,NA,7,stuck sequins,0,12.652303924869136
19,5329,had the letter Z in them,wrote __,English,27,F,M,All,object_low,15,birthday cards,15,10,1,Yes,NA,8,had the letter Z in them birthday cards,1,2.838703299024723
19,5036,blew away,left __ on a table on a windy day,English,27,F,F,Some,object_mid,8,hats,15,11,1,Yes,NA,9,blew away hats,0.5333333333333333,11.052387485109298
19,10363,got stained,spilled red nail polish on __,English,27,M,F,short_filler,object_low,11,white tablecloths,15,12,1,Yes,NA,10,got stained white tablecloths,0.7333333333333333,13.882496788490633
19,8015,ate the seeds,left seeds out for __,English,27,F,F,All,object_low,15,dogs,15,13,1,Yes,NA,11,ate the seeds dogs,1,6.344011650905836
19,2543,landed flat,tossed __,English,27,M,F,All,object_mid,15,pancakes,15,14,1,Yes,NA,12,landed flat pancakes,1,11.896584800305092
19,10689,exploded,lit __,English,27,F,F,long_filler,object_mid,13,fireworks,15,15,1,Yes,NA,13,exploded fireworks,0.8666666666666667,12.834754345666402
19,2738,beeped,left the lights on in __,English,27,F,M,Some,object_mid,11,old cars,15,16,1,Yes,NA,14,beeped old cars,0.7333333333333333,3.376453592389398
19,8566,dissolved,put __ in a bucket of water,English,27,M,F,long_filler,object_low,5,carrots,15,17,1,Yes,NA,15,dissolved carrots,0.3333333333333333,1.2853167551527385
19,7486,laughed,told a joke to __,English,27,M,M,short_filler,object_high,7,kids,15,18,1,Yes,NA,16,laughed kids,0.4666666666666667,9.49379625023112
19,9360,sank,threw __ into a pool,English,27,F,M,short_filler,object_mid,3,cups,15,19,1,Yes,NA,17,sank cups,0.2,6.20158939454454
19,2537,ripped,used __ as dog toys,English,27,M,F,All,object_mid,15,shirts,15,20,1,Yes,NA,18,ripped shirts,1,10.860010931867507
19,1984,fell down,punched __,English,27,F,M,Some,object_low,6,shelves,15,21,1,Yes,NA,19,fell down shelves,0.4,6.721416845326691
19,2911,honked,cut off __,English,27,M,M,None,object_low,0,bicyclists,15,22,1,Yes,NA,20,honked bicyclists,0,5.317873569706685
19,2248,stopped,pressed the brakes on __,English,27,M,F,Some,object_high,9,cars,15,23,1,Yes,NA,21,stopped cars,0.6,13.476028415983608
19,3359,rhymed,wrote __,English,27,F,F,All,object_low,15,poems,15,24,1,Yes,NA,22,rhymed poems,1,9.78994930986818
19,2056,exploded,heated up __ in a microwave,English,27,F,F,Some,object_low,10,CDs,15,25,1,Yes,NA,23,exploded CDs,0.6666666666666666,7.84924747413427
19,3042,flashed,took a picture with __,English,27,F,M,short_filler,object_high,10,cameras,15,26,1,Yes,NA,24,flashed cameras,0.6666666666666666,9.940973957313002
19,3253,froze,put __ in the freezer,English,27,M,F,Some,object_high,9,berries,15,27,1,Yes,NA,25,froze berries,0.6,14.377259004987641
19,5025,stuck to the wall,threw __ against a wall,English,27,M,F,short_filler,object_low,9,baseballs,15,28,1,Yes,NA,26,stuck to the wall baseballs,0.6,2.260884648323793
19,3345,were green,saw __,English,27,M,F,long_filler,object_high,5,clovers,15,29,1,Yes,NA,27,were green clovers,0.3333333333333333,14.178248739336857
19,2982,melted,left __ in the hot sun,English,27,M,M,Some,object_low,11,pencils,15,30,1,Yes,NA,28,melted pencils,0.7333333333333333,2.4374810535720317
19,7488,lit up,pressed the 'on' button on __,English,27,M,F,long_filler,object_low,10,cd-players,15,31,1,Yes,NA,29,lit up cd-players,0.6666666666666666,12.391837229251065
19,3353,reflected the sunlight,placed __ in the sun,English,27,M,M,None,object_mid,0,diamonds,15,32,1,Yes,NA,30,reflected the sunlight diamonds,0,14.033830597116333
20,8783,ripped,used __ as dog toys,English,21,F,M,long_filler,object_high,10,books,15,3,1,Yes,NA,1,ripped books,0.6666666666666666,12.65668880089622
20,1118,froze,put __ in the freezer,English,21,M,F,All,object_low,7,bottles of hand soap,15,4,1,Yes,NA,2,froze bottles of hand soap,0.4666666666666667,10.935477411822802
20,2604,blew away,left __ on a table on a windy day,English,21,M,F,short_filler,object_high,6,napkins,15,5,1,Yes,NA,3,blew away napkins,0.4,13.88454430875539
20,1143,broke,ran __ over with a car,English,21,M,M,None,object_low,8,logs,15,6,1,Yes,NA,4,broke logs,0.5333333333333333,6.09848929758821
20,696,laughed,told a joke to __,English,21,M,F,long_filler,object_high,5,kids,15,7,1,Yes,NA,5,laughed kids,0.3333333333333333,9.49379625023112
20,928,were green,saw __,English,21,F,M,All,object_high,10,clovers,15,8,1,Yes,NA,6,were green clovers,0.6666666666666666,14.178248739336857
20,3801,melted,left __ in the hot sun,English,21,F,M,None,object_high,0,ice cubes,15,9,1,Yes,NA,7,melted ice cubes,0,14.08769806047017
20,3368,dissolved,put __ in a bucket of water,English,21,F,F,short_filler,object_low,0,carrots,15,10,1,Yes,NA,8,dissolved carrots,0,1.2853167551527385
20,3843,exploded,lit __,English,21,M,M,Some,object_mid,9,fireworks,15,11,1,Yes,NA,9,exploded fireworks,0.6,12.834754345666402
20,5349,sank,threw __ into a pool,English,21,M,M,short_filler,object_mid,15,cups,15,12,1,Yes,NA,10,sank cups,1,6.20158939454454
20,25719,landed flat,tossed __,English,21,M,F,All,object_low,15,notebooks,15,13,1,Yes,NA,11,landed flat notebooks,1,12.070264558564942
20,1539,rolled,pushed __,English,21,F,M,All,object_mid,15,shopping carts,15,14,1,Yes,NA,12,rolled shopping carts,1,13.115460824610237
20,2166,fell down,punched __,English,21,F,F,short_filler,object_mid,6,block towers,15,15,1,Yes,NA,13,fell down block towers,0.4,12.263438501967169
20,2102,got stained,spilled red nail polish on __,English,21,F,M,Some,object_high,11,white carpets,15,16,1,Yes,NA,14,got stained white carpets,0.7333333333333333,14.128146496766012
20,2621,honked,cut off __,English,21,F,F,long_filler,object_high,9,taxi drivers,15,17,1,Yes,NA,15,honked taxi drivers,0.6,11.196844691877397
20,4926,stuck to the wall,threw __ against a wall,English,21,F,F,None,object_high,12,pieces of gum,15,18,1,Yes,NA,16,stuck to the wall pieces of gum,0.8,7.253162612975175
20,1672,ran out of batteries,left __ on (and unplugged) all day,English,21,F,M,long_filler,object_mid,8,bike lights,15,19,1,Yes,NA,17,ran out of batteries bike lights,0.5333333333333333,11.54386203761813
20,1450,exploded,heated up __ in a microwave,English,21,F,M,Some,object_mid,6,balls of tin foil,15,20,1,Yes,NA,18,exploded balls of tin foil,0.4,11.403316050279962
20,1333,burnt,threw __ into a fire,English,21,M,M,Some,object_high,10,matches,15,21,1,Yes,NA,19,burnt matches,0.6666666666666666,14.323536207549443
20,1519,reflected the sunlight,placed __ in the sun,English,21,M,M,Some,object_high,12,mirrors,15,22,1,Yes,NA,20,reflected the sunlight mirrors,0.8,13.609731031190691
20,1839,ate the seeds,left seeds out for __,English,21,M,F,Some,object_high,13,birds,15,23,1,Yes,NA,21,ate the seeds birds,0.8666666666666667,12.365944808737018
20,2123,stuck,glued __ to a piece of paper,English,21,M,F,All,object_mid,15,sequins,15,24,1,Yes,NA,22,stuck sequins,1,12.652303924869136
20,2231,decomposed,put __ in a compost pile for a month,English,21,F,F,None,object_mid,0,pinecones,15,25,1,Yes,NA,23,decomposed pinecones,0,9.491784817341596
20,1432,rhymed,wrote __,English,21,F,M,short_filler,object_mid,6,songs,15,26,1,Yes,NA,24,rhymed songs,0.4,9.154605076588458
20,843,popped,poked __ with a pin,English,21,F,M,Some,object_high,8,bubbles,15,27,1,Yes,NA,25,popped bubbles,0.5333333333333333,14.421873858181714
20,670,had the letter Z in them,wrote __,English,21,M,F,Some,object_high,5,novels,15,28,1,Yes,NA,26,had the letter Z in them novels,0.3333333333333333,12.417127900629465
20,3017,lit up,pressed the 'on' button on __,English,21,M,F,None,object_mid,0,computers,15,29,1,Yes,NA,27,lit up computers,0,13.410494165057099
20,1619,beeped,left the lights on in __,English,21,F,F,Some,object_mid,8,old cars,15,30,1,Yes,NA,28,beeped old cars,0.5333333333333333,3.376453592389398
20,1786,flashed,took a picture with __,English,21,M,M,long_filler,object_high,7,cameras,15,31,1,Yes,NA,29,flashed cameras,0.4666666666666667,9.940973957313002
20,1591,stopped,pressed the brakes on __,English,21,F,F,Some,object_high,12,cars,15,32,1,Yes,NA,30,stopped cars,0.8,13.476028415983608
21,16170,dissolved,put __ in a bucket of water,English,26,F,F,short_filler,object_low,0,carrots,15,3,1,Yes,No comments,1,dissolved carrots,0,1.2853167551527385
21,12715,stopped,pressed the brakes on __,English,26,F,M,Some,object_mid,8,motorcycles,15,4,1,Yes,No comments,2,stopped motorcycles,0.5333333333333333,13.219713304516466
21,11649,blew away,left __ on a table on a windy day,English,26,F,M,long_filler,object_low,0,backpacks,15,5,1,Yes,No comments,3,blew away backpacks,0,3.1859673290741206
21,7759,flashed,took a picture with __,English,26,M,F,Some,object_low,7,webcams,15,6,1,Yes,No comments,4,flashed webcams,0.4666666666666667,6.31436691074992
21,12626,rolled,pushed __,English,26,F,M,long_filler,object_high,15,wheelchairs,15,7,1,Yes,No comments,5,rolled wheelchairs,1,14.081890892791053
21,6013,stuck to the wall,threw __ against a wall,English,26,F,F,None,object_high,0,pieces of gum,15,8,1,Yes,No comments,6,stuck to the wall pieces of gum,0,7.253162612975175
21,14896,melted,left __ in the hot sun,English,26,M,M,short_filler,object_mid,15,crayons,15,9,1,Yes,No comments,7,melted crayons,1,13.231037108035327
21,6594,decomposed,put __ in a compost pile for a month,English,26,M,M,Some,object_high,6,banana peels,15,10,1,Yes,No comments,8,decomposed banana peels,0.4,13.147252019709121
21,7502,stuck,glued __ to a piece of paper,English,26,M,M,Some,object_low,8,beads,15,11,1,Yes,No comments,9,stuck beads,0.5333333333333333,12.048584480716158
21,9543,were green,saw __,English,26,M,M,None,object_low,0,strawberries,15,12,1,Yes,No comments,10,were green strawberries,0,3.8450290098690334
21,13551,landed flat,tossed __,English,26,M,M,short_filler,object_low,3,notebooks,15,13,1,Yes,No comments,11,landed flat notebooks,0.2,12.070264558564942
21,7463,fell down,punched __,English,26,M,M,All,object_mid,15,block towers,15,14,1,Yes,No comments,12,fell down block towers,1,12.263438501967169
21,6643,ran out of batteries,left __ on (and unplugged) all day,English,26,F,M,Some,object_high,8,laptops,15,15,1,Yes,No comments,13,ran out of batteries laptops,0.5333333333333333,12.969289999403273
21,8480,burnt,threw __ into a fire,English,26,F,M,long_filler,object_low,0,rocks,15,16,1,Yes,No comments,14,burnt rocks,0,4.621885587211013
21,4380,lit up,pressed the 'on' button on __,English,26,F,F,All,object_mid,15,computers,15,17,1,Yes,No comments,15,lit up computers,1,13.410494165057099
21,7482,ripped,used __ as dog toys,English,26,M,F,None,object_mid,0,shirts,15,18,1,Yes,No comments,16,ripped shirts,0,10.860010931867507
21,6202,popped,poked __ with a pin,English,26,F,M,Some,object_high,7,bubbles,15,19,1,Yes,No comments,17,popped bubbles,0.4666666666666667,14.421873858181714
21,7681,beeped,left the lights on in __,English,26,M,F,None,object_high,0,new cars,15,20,1,Yes,No comments,18,beeped new cars,0,9.052822868614953
21,10840,ate the seeds,left seeds out for __,English,26,F,F,short_filler,object_mid,10,butterflies,15,21,1,Yes,No comments,19,ate the seeds butterflies,0.6666666666666666,8.606938580395987
21,6775,exploded,heated up __ in a microwave,English,26,F,M,long_filler,object_mid,15,balls of tin foil,15,22,1,Yes,No comments,20,exploded balls of tin foil,1,11.403316050279962
21,13950,got stained,spilled red nail polish on __,English,26,M,F,All,object_low,15,white tablecloths,15,23,1,Yes,No comments,21,got stained white tablecloths,1,13.882496788490633
21,4778,rhymed,wrote __,English,26,M,M,Some,object_high,6,limericks,15,24,1,Yes,No comments,22,rhymed limericks,0.4,12.14705218576939
21,18271,sank,threw __ into a pool,English,26,M,M,All,object_low,15,balloons,15,25,1,Yes,No comments,23,sank balloons,1,1.5445100044791333
21,5753,exploded,lit __,English,26,F,M,None,object_low,0,candles,15,26,1,Yes,No comments,24,exploded candles,0,1.159048787109265
21,10978,laughed,told a joke to __,English,26,M,M,short_filler,object_low,4,lawyers,15,27,1,Yes,No comments,25,laughed lawyers,0.26666666666666666,8.501712492528245
21,6468,reflected the sunlight,placed __ in the sun,English,26,M,M,Some,object_low,6,phone screens,15,28,1,Yes,No comments,26,reflected the sunlight phone screens,0.4,13.200526028593703
21,27815,froze,put __ in the freezer,English,26,F,M,Some,object_high,8,berries,15,29,1,Yes,No comments,27,froze berries,0.5333333333333333,14.377259004987641
21,8485,had the letter Z in them,wrote __,English,26,F,F,All,object_mid,15,love notes,15,30,1,Yes,No comments,28,had the letter Z in them love notes,1,5.775082649817127
21,3992,broke,ran __ over with a car,English,26,F,M,Some,object_high,9,sunglasses,15,31,1,Yes,No comments,29,broke sunglasses,0.6,14.107479459023798
21,6776,honked,cut off __,English,26,F,M,long_filler,object_high,9,taxi drivers,15,32,1,Yes,No comments,30,honked taxi drivers,0.6,11.196844691877397
22,11071,exploded,lit __,english,54,M,F,All,object_low,15,candles,15,3,1,Yes,NA,1,exploded candles,1,1.159048787109265
22,8520,rolled,pushed __,english,54,F,F,Some,object_mid,8,shopping carts,15,4,1,Yes,NA,2,rolled shopping carts,0.5333333333333333,13.115460824610237
22,9735,stopped,pressed the brakes on __,english,54,F,F,All,object_mid,15,motorcycles,15,5,1,Yes,NA,3,stopped motorcycles,1,13.219713304516466
22,7992,flashed,took a picture with __,english,54,F,M,Some,object_mid,8,phones,15,6,1,Yes,NA,4,flashed phones,0.5333333333333333,9.01407984535733
22,3717,landed flat,tossed __,english,54,M,M,Some,object_low,8,notebooks,15,7,1,Yes,NA,5,landed flat notebooks,0.5333333333333333,12.070264558564942
22,5247,ate the seeds,left seeds out for __,english,54,F,M,Some,object_low,8,dogs,15,8,1,Yes,NA,6,ate the seeds dogs,0.5333333333333333,6.344011650905836
